@ HyperIMU -ianovir - 2018
@ Date:Wed Feb 19 13:14:20 GMT+03:00 2020, Sampling Rate:50ms

timestamp,accelerometer_lsm6ds3_c.x,accelerometer_lsm6ds3_c.y,accelerometer_lsm6ds3_c.z,akm_akm09918.x,akm_akm09918.y,akm_akm09918.z,orientation.x,orientation.y,orientation.z,light_ltr578.x,light_ltr578.y,light_ltr578.z,proximity_ltr578.x,proximity_ltr578.y,proximity_ltr578.z,gyroscope_lsm6ds3_c.x,gyroscope_lsm6ds3_c.y,gyroscope_lsm6ds3_c.z,gravity.x,gravity.y,gravity.z,linear_Acceleration.x,linear_Acceleration.y,linear_Acceleration.z,rotation_Vector.x,rotation_Vector.y,rotation_Vector.z,HALL_sensor.x,HALL_sensor.y,HALL_sensor.z,uncalibrated_Magnetic_Field.x,uncalibrated_Magnetic_Field.y,uncalibrated_Magnetic_Field.z,game_Rotation_Vector.x,game_Rotation_Vector.y,game_Rotation_Vector.z,uncalibrated_Gyroscope.x,uncalibrated_Gyroscope.y,uncalibrated_Gyroscope.z,significant_Motion.x,significant_Motion.y,significant_Motion.z,step_counter.x,step_counter.y,step_counter.z,geomagnetic_Rotation_Vector.x,geomagnetic_Rotation_Vector.y,geomagnetic_Rotation_Vector.z,phonecall_sensor.x,phonecall_sensor.y,phonecall_sensor.z,RPC_sensor.x,RPC_sensor.y,RPC_sensor.z,drop_sensor.x,drop_sensor.y,drop_sensor.z
1582107260391,2.9192119,3.9140313,8.698709,-27.0,-13.3125,-38.375,62.109997,-28.17,21.06,361.0,441.0,1813.0,5.0,52.0,0.0,0.0,0.0,0.0,3.5249,4.3202,8.0672,-0.3182,-0.2112,0.6802,0.113499,-0.275323,-0.453819,0.0,0.0,0.0,-49.5,32.0,-36.5625,0.224511,-0.141999,0.09422,0.0,0.0,0.0,0.0,0.0,0.0,182935.0,0.0,0.0,-0.069037996,-0.214786,-0.649281,0.0,0.0,0.0,0.0,2.0,0.0,0.0,0.0,0.0
1582107260443,2.1089182,3.4134996,8.661532,-33.6875,-17.75,-33.9375,79.65,-24.699999,15.91,376.0,459.0,1867.0,5.0,52.0,0.0,0.0,0.0,0.0,2.6889,3.9422,8.5673,-0.72749996,-0.5785,0.32729998,0.076132,-0.239565,-0.596865,0.0,0.0,0.0,-56.1875,27.5625,-32.125,0.208823,-0.116748,0.081467,0.0,0.0,0.0,0.0,0.0,0.0,182935.0,0.0,0.0,0.045058,-0.211606,-0.715869,0.0,0.0,0.0,0.0,2.0,0.0,0.0,0.0,0.0
1582107260493,2.3508952,3.6699665,7.6093287,-32.1875,-18.0,-34.5,85.17,-23.619999,13.61,376.0,459.0,1867.0,5.0,52.0,0.0,0.0,0.0,0.0,2.3086998,3.8193998,8.7322,0.1232,-0.1321,-1.2595,0.071123,-0.222982,-0.639844,0.0,0.0,0.0,-54.6875,27.3125,-32.6875,0.200702,-0.097985,0.077978,0.0,0.0,0.0,0.0,0.0,0.0,182935.0,0.0,0.0,0.049807,-0.255529,-0.679172,0.0,0.0,0.0,0.0,2.0,0.0,0.0,0.0,0.0
1582107260545,0.45799163,3.1974661,8.108941,-29.625,-18.5625,-35.875,88.659996,-22.74,10.95,497.0,606.0,2453.0,5.0,52.0,0.0,-0.5564633,0.72609186,-0.8876919,1.8628,3.7221,8.879499,-1.3431,-0.70159996,-0.5046,0.075013,-0.204067,-0.66854,0.0,0.0,0.0,-52.125,26.75,-34.0625,0.197292,-0.083387,0.075009,-0.5546656,0.7220427,-0.893085,0.0,0.0,0.0,182935.0,0.0,0.0,0.06692,-0.21085499,-0.716685,0.0,0.0,0.0,0.0,2.0,0.0,0.0,0.0,0.0
1582107260595,0.024918852,3.2786868,9.296925,-27.5625,-18.0625,-37.3125,91.63,-21.41,7.6499996,497.0,606.0,2453.0,5.0,52.0,0.0,-0.61227894,0.59657097,-0.42266637,1.3066,3.5493,9.0479,-1.6106,-0.2445,0.1801,0.082186,-0.178687,-0.694387,0.0,0.0,0.0,-50.0625,27.25,-35.5,0.185522,-0.055953,0.048465,-0.6104638,0.5925044,-0.428042,0.0,0.0,0.0,182935.0,0.0,0.0,0.129484,-0.142519,-0.729888,0.0,0.0,0.0,0.0,2.0,0.0,0.0,0.0,0.0
1582107260648,0.91760176,3.677829,8.351914,-26.0,-17.5625,-38.1875,93.1,-20.07,4.83,497.0,606.0,2453.0,5.0,52.0,0.0,-0.35894442,0.41809362,-0.6455624,0.8272,3.3537998,9.1781,0.16319999,0.2844,-0.64629996,0.089565,-0.154997,-0.709183,0.0,0.0,0.0,-48.5,27.75,-36.375,0.174444,-0.033179,0.027201,-0.35712928,0.41404447,-0.65095544,0.0,0.0,0.0,182935.0,0.0,0.0,0.092989,-0.159221,-0.730637,0.0,0.0,0.0,0.0,2.0,0.0,0.0,0.0,0.0
1582107260699,-0.36735672,2.7173424,7.4579477,-23.625,-17.5,-38.9375,94.84,-19.33,2.3899999,679.0,829.0,3188.0,5.0,52.0,0.0,-0.3678805,0.5677905,-0.76242965,0.4105,3.244,9.245399,-0.5085,-0.3412,-1.9296,0.098396,-0.137594,-0.723374,0.0,0.0,0.0,-46.125,27.8125,-37.125,0.168829,-0.015881,0.006981,-0.36608282,0.5637239,-0.7678052,0.0,0.0,0.0,182935.0,0.0,0.0,0.127286,-0.155592,-0.702741,0.0,0.0,0.0,0.0,2.0,0.0,0.0,0.0,0.0
1582107260752,-0.44323376,1.6755198,6.7931643,-22.1875,-16.75,-39.5,96.38,-18.4,-0.049999997,679.0,829.0,3188.0,5.0,52.0,0.0,-0.69244194,0.28703684,-0.48026225,-0.0089,3.0955,9.3052,-0.3538,-0.99689996,-2.1954,0.106921,-0.118877,-0.735857,0.0,0.0,0.0,-44.6875,28.5625,-37.6875,0.16086,0.002592,-0.012104,-0.69064426,0.28297022,-0.48563787,0.0,0.0,0.0,182935.0,0.0,0.0,0.12253,-0.08993,-0.764851,0.0,0.0,0.0,0.0,2.0,0.0,0.0,0.0,0.0
1582107260802,-0.29193938,1.6594403,8.482072,-21.6875,-15.75,-40.1875,97.909996,-16.15,-1.54,711.0,868.0,3313.0,5.0,52.0,0.0,-1.0950196,0.030473448,-0.87235045,-0.26369998,2.7273,9.415999,0.303,-1.2660999,-2.316,0.102294,-0.097212,-0.747893,0.0,0.0,0.0,-44.1875,29.5625,-38.375,0.142009,0.013468,-0.024881,-1.0932044,0.026424285,-0.8777261,0.0,0.0,0.0,182935.0,0.0,0.0,0.065617,-0.08493,-0.80554,0.0,0.0,0.0,0.0,2.0,0.0,0.0,0.0,0.0
1582107260852,0.49613604,1.5427756,8.417534,-20.625,-14.6875,-40.5,100.74,-13.16,-2.3899999,711.0,868.0,3313.0,5.0,52.0,0.0,-0.5841966,-0.8259596,-1.0251366,-0.41,2.2310998,9.5406,0.204,-0.51489997,0.0698,0.089083,-0.075001,-0.76647,0.0,0.0,0.0,-43.125,30.625,-38.6875,0.115957,0.01894,-0.045044,-0.5823815,-0.8300262,-1.0305122,0.0,0.0,0.0,182935.0,0.0,0.0,0.067913,-0.072445996,-0.800973,0.0,0.0,0.0,0.0,2.0,0.0,0.0,0.0,0.0
1582107260903,-0.39186376,2.2409058,10.163003,-20.8125,-13.6875,-40.9375,104.42,-10.82,-0.88,790.0,963.0,3666.0,5.0,52.0,0.0,-1.0375284,0.22542672,-1.0807427,-0.151,1.8411,9.631,-0.3098,0.1103,-0.0892,0.063839,-0.069827996,-0.7872,0.0,0.0,0.0,-43.3125,31.625,-39.125,0.095115,0.00397,-0.068341,-1.0357307,0.2213601,-1.0861183,0.0,0.0,0.0,182935.0,0.0,0.0,0.063661,-0.060243,-0.804519,0.0,0.0,0.0,0.0,2.0,0.0,0.0,0.0,0.0
1582107260953,-0.9942162,1.5081077,9.913049,-18.75,-13.0,-42.0,107.119995,-8.059999,-2.6,790.0,963.0,3666.0,5.0,52.0,0.0,-0.7733728,1.1777831,-0.5878618,-0.4461,1.3737,9.6996,-0.2403,0.50909996,0.1069,0.059997,-0.043049,-0.803232,0.0,0.0,0.0,-41.25,32.3125,-40.1875,0.072325,0.017988,-0.10394,-0.7715577,1.1737164,-0.5932374,0.0,0.0,0.0,182935.0,0.0,0.0,0.085897,-0.059693,-0.775582,0.0,0.0,0.0,0.0,2.0,0.0,0.0,0.0,0.0
1582107261005,-1.184038,0.12324393,10.082711,-15.625,-11.1875,-43.0625,108.32,-5.25,-7.29,790.0,963.0,3666.0,5.0,52.0,0.0,-0.71462506,1.3979564,-0.22108085,-1.1111,0.9643,9.6956,0.027199998,-0.5588,0.18869999,0.078265,1.22E-4,-0.809897,0.0,0.0,0.0,-38.125,34.125,-41.25,0.053184,0.059993,-0.121112,-0.7128274,1.3939072,-0.22645646,0.0,0.0,0.0,182935.0,0.0,0.0,0.074622996,0.001779,-0.820729,0.0,0.0,0.0,0.0,2.0,0.0,0.0,0.0,0.0
1582107261057,-0.31977916,0.16995001,10.956594,-11.5625,-10.125,-43.5,108.82,-3.6999998,-11.48,900.0,1098.0,4182.0,5.0,52.0,0.0,0.11309733,1.1833681,-0.3909712,-1.9521999,0.62049997,9.5903,1.5892999,-0.5126,1.7069,0.100013,0.032048,-0.810615,0.0,0.0,0.0,-34.625,35.1875,-41.875,0.044655,0.096964,-0.121941,0.11491248,1.179319,-0.3963468,0.0,0.0,0.0,182935.0,0.0,0.0,0.031737,0.018481,-0.873935,0.0,0.0,0.0,0.0,2.0,0.0,0.0,0.0,0.0
1582107261107,-1.3230071,-0.13566504,9.820603,-10.125,-9.9375,-43.375,110.7,-3.1399999,-13.98,900.0,1098.0,4182.0,5.0,52.0,0.0,-0.49886745,0.35871753,-1.1466813,-2.3697,0.5215,9.501699,1.1635,-0.76669997,0.26569998,0.115573,0.046798,-0.81812,0.0,0.0,0.0,-32.625,35.375,-41.5625,0.042704,0.118936,-0.126848,-0.4970523,0.35466835,-1.1520569,0.0,0.0,0.0,182935.0,0.0,0.0,0.029061,0.01884,-0.895941,0.0,0.0,0.0,0.0,2.0,0.0,0.0,0.0,0.0
1582107261157,-3.1904747,-0.27060226,10.763718,-8.75,-9.75,-43.25,115.259995,-0.68,-14.54,1137.0,1387.0,5362.0,5.0,52.0,0.0,0.24387486,0.60147536,-1.6483936,-2.4621,0.1136,9.491799,-0.4798,-0.0744,1.8348,0.110064,0.062733,-0.83821,0.0,0.0,0.0,-31.25,35.5625,-41.4375,0.02572,0.125252,-0.151262,0.24569,0.5974262,-1.6537693,0.0,0.0,0.0,182935.0,0.0,0.0,0.080002,0.042889,-0.857391,0.0,0.0,0.0,0.0,2.0,0.0,0.0,0.0,0.0
1582107261208,-3.5792358,-0.16004759,7.813228,-7.25,-9.625,-43.5625,120.06,0.14,-16.09,1137.0,1387.0,5362.0,5.0,52.0,0.0,-0.6726499,-0.29708993,-1.1276398,-2.7186,-0.0235,9.4222,-0.8706,-0.21169999,-1.6063,0.120657,0.070994,-0.857711,0.0,0.0,0.0,-29.75,35.6875,-41.75,0.026072,0.138739,-0.190494,-0.6708347,-0.30113912,-1.1330154,0.0,0.0,0.0,182935.0,0.0,0.0,0.14111,0.108242996,-0.841969,0.0,0.0,0.0,0.0,2.0,0.0,0.0,0.0,0.0
1582107261261,-3.5067585,-0.05856217,10.987174,-7.9375,-7.5625,-43.625,123.649994,3.8,-14.24,1277.0,1558.0,6048.0,5.0,52.0,0.0,-0.73263687,-0.5140518,-1.129228,-2.4136,-0.6299,9.484,-0.0576,0.6986,-0.1971,0.093733,0.087521,-0.87231,0.0,0.0,0.0,-30.4375,37.75,-41.8125,-0.004247,0.129143,-0.212894,-0.7308217,-0.51811844,-1.1346211,0.0,0.0,0.0,182935.0,0.0,0.0,0.122872,0.085006,-0.822834,0.0,0.0,0.0,0.0,2.0,0.0,0.0,0.0,0.0
1582107261312,-3.16614,-0.9232425,9.072827,-6.0625,-7.0,-43.625,126.28,5.64,-14.66,1277.0,1558.0,6048.0,5.0,52.0,0.0,0.06085963,0.38440877,-0.3983714,-2.4829,-0.9331,9.4411,-1.0572,0.29569998,0.2478,0.091671,0.101163,-0.880932,0.0,0.0,0.0,-28.5625,38.3125,-41.8125,-0.01516,0.136783,-0.239057,0.06265732,0.38034216,-0.40374702,0.0,0.0,0.0,182935.0,0.0,0.0,0.135281,0.135176,-0.830712,0.0,0.0,0.0,0.0,2.0,0.0,0.0,0.0,0.0
1582107261363,-3.9093962,-0.7729537,8.994268,-6.125,-5.75,-44.0,127.759995,6.8999996,-15.33,1277.0,1558.0,6048.0,5.0,52.0,0.0,-0.79234457,0.1680403,-0.27815312,-2.6016998,-1.0533999,9.396299,-0.89919996,0.3964,-0.5507,0.095436,0.108678,-0.884221,0.0,0.0,0.0,-28.625,39.5625,-42.1875,-0.018177,0.144464,-0.248732,-0.79052943,0.16397369,-0.28352875,0.0,0.0,0.0,182935.0,0.0,0.0,0.128114,0.139062,-0.837362,0.0,0.0,0.0,0.0,2.0,0.0,0.0,0.0,0.0
1582107261413,-2.617188,-0.955229,10.950772,-4.5625,-4.5625,-44.4375,127.71999,9.11,-16.48,1442.0,1757.0,6952.0,5.0,52.0,0.0,-0.69736373,1.4078349,0.47282714,-2.6798,-1.4203,9.3258,-0.4484,0.8515,1.5986999,0.09369,0.133555,-0.880626,0.0,0.0,0.0,-27.0625,40.75,-42.625,-0.034504,0.153989,-0.256245,-0.69556606,1.4037683,0.46745154,0.0,0.0,0.0,182935.0,0.0,0.0,0.115963,0.11761,-0.81866,0.0,0.0,0.0,0.0,2.0,0.0,0.0,0.0,0.0
1582107261465,-3.101334,-1.4374596,10.766764,-1.6875,-4.0625,-44.1875,126.84,10.04,-20.369999,1442.0,1757.0,6952.0,5.0,52.0,0.0,-0.11657054,0.813306,0.22418754,-3.415,-1.6028,9.0519,0.3357,-0.113299996,1.8039,0.119076,0.155876,-0.86992997,0.0,0.0,0.0,-24.1875,41.25,-42.375,-0.035829,0.193521,-0.244693,-0.11477285,0.8092568,0.21881193,0.0,0.0,0.0,182935.0,0.0,0.0,0.07492,0.111361,-0.88869697,0.0,0.0,0.0,0.0,2.0,0.0,0.0,0.0,0.0
1582107261515,-3.0792403,-0.9467248,10.254098,0.3125,-3.9375,-44.125,126.64,10.139999,-22.1,1528.0,1863.0,7484.0,5.0,52.0,0.0,0.079813905,1.0540392,0.13425073,-3.6906,-1.6001999,8.9436,0.3073,0.63909996,1.4611,0.131688,0.163274,-0.865925,0.0,0.0,0.0,-22.1875,41.375,-42.3125,-0.03272,0.210567,-0.2369,0.081611596,1.04999,0.1288751,0.0,0.0,0.0,182935.0,0.0,0.0,0.10981,0.11743,-0.855435,0.0,0.0,0.0,0.0,2.0,0.0,0.0,0.0,0.0
1582107261573,-5.5039535,-1.3285329,9.135566,3.375,-4.4375,-43.3125,126.579994,9.12,-26.8,1528.0,1863.0,7484.0,5.0,52.0,0.0,0.5496391,1.2072443,0.2587276,-4.4217997,-1.3885,8.6423,-0.9227,0.0646,0.6739,0.171587,0.172979,-0.857938,0.0,0.0,0.0,-19.125,40.875,-41.5,-0.018429,0.237957,-0.235345,0.55145425,1.2031776,0.253352,0.0,0.0,0.0,182935.0,0.0,0.0,0.142977,0.142982,-0.853714,0.0,0.0,0.0,0.0,2.0,0.0,0.0,0.0,0.0
1582107261621,-4.848881,-2.4862828,6.906209,4.5625,-5.5625,-43.4375,126.27,7.73,-28.84,1524.0,1858.0,7538.0,5.0,52.0,0.0,0.18081611,-0.2639636,0.05681047,-4.731,-1.1567,8.5117,-0.1722,-1.2066,-1.4900999,0.192142,0.170597,-0.854399,0.0,0.0,0.0,-17.9375,39.75,-41.625,7.01E-4,0.258036,-0.228765,0.1826138,-0.26803023,0.051434852,0.0,0.0,0.0,182935.0,0.0,0.0,0.199604,0.217942,-0.84639,0.0,0.0,0.0,0.0,2.0,0.0,0.0,0.0,0.0
1582107261671,-4.579591,-0.9970988,9.549522,3.25,-6.0,-43.625,125.659996,7.04,-27.21,1524.0,1858.0,7538.0,5.0,52.0,0.0,0.40111157,-0.6171484,0.31686452,-4.4841,-1.0694,8.655499,-0.96819997,-0.25439999,0.543,0.181628,0.160313,-0.856493,0.0,0.0,0.0,-19.25,39.3125,-41.8125,4.7199999E-4,0.243461,-0.223095,0.4029267,-0.6211976,0.3114889,0.0,0.0,0.0,182935.0,0.0,0.0,0.205192,0.215882,-0.847152,0.0,0.0,0.0,0.0,2.0,0.0,0.0,0.0,0.0
1582107261721,-4.671969,-0.47556508,9.219669,2.9375,-7.125,-42.875,124.52,5.13,-26.15,1524.0,1858.0,7538.0,5.0,52.0,0.0,1.0021855,0.62282073,0.16863371,-4.3223,-0.7876,8.7674,-0.3064,0.120799996,1.0979999,0.179743,0.143802,-0.856567,0.0,0.0,0.0,-19.5625,38.1875,-41.0625,0.012083,0.230806,-0.22133,1.0040007,0.61877155,0.16325809,0.0,0.0,0.0,182935.0,0.0,0.0,0.175647,0.142709,-0.848887,0.0,0.0,0.0,0.0,2.0,0.0,0.0,0.0,0.0
1582107261771,-4.5351353,-1.2998313,8.387377,2.4375,-8.0625,-42.3125,124.07,2.48,-27.22,1450.0,1767.0,7145.0,5.0,52.0,0.0,-0.36643186,-0.7169289,-0.110514246,-4.487,-0.3779,8.7116995,-0.4653,0.5348,-0.9644,0.197978,0.128958,-0.855829,0.0,0.0,0.0,-20.0625,37.25,-40.5,0.035191,0.234496,-0.222112,-0.36461672,-0.7209955,-0.11588986,0.0,0.0,0.0,182935.0,0.0,0.0,0.218952,0.150286,-0.80932,0.0,0.0,0.0,0.0,2.0,0.0,0.0,0.0,0.0
1582107261822,-3.640604,-0.08112513,8.219764,0.75,-8.5625,-43.0,123.96,2.81,-25.369999,1450.0,1767.0,7145.0,5.0,52.0,0.0,0.5895373,-1.1492645,0.5259026,-4.2025,-0.4348,8.8498,0.6231,0.062099997,-1.1908,0.182584,0.124286,-0.858436,0.0,0.0,0.0,-21.75,36.75,-41.1875,0.02812,0.220024,-0.221094,0.591335,-1.1533135,0.520527,0.0,0.0,0.0,182935.0,0.0,0.0,0.177167,0.134828,-0.85527897,0.0,0.0,0.0,0.0,2.0,0.0,0.0,0.0,0.0
1582107261872,-2.1697598,-0.6787466,8.31355,-1.6875,-8.5,-42.9375,122.689995,2.02,-21.92,1390.0,1695.0,6675.0,5.0,52.0,0.0,0.36215582,-0.47635272,0.16817993,-3.662,-0.32119998,9.091499,0.7985,-0.64959997,1.6271,0.158555,0.106391,-0.859782,0.0,0.0,0.0,-24.1875,36.8125,-41.125,0.026407,0.190131,-0.216387,0.36397097,-0.48041934,0.1628043,0.0,0.0,0.0,182935.0,0.0,0.0,0.163976,0.085802,-0.819007,0.0,0.0,0.0,0.0,2.0,0.0,0.0,0.0,0.0
1582107261924,-4.5801654,-2.737607,19.017765,-5.8125,-9.5,-42.5,123.1,0.93,-16.609999,1390.0,1695.0,6675.0,5.0,52.0,0.0,0.3046123,-1.0629928,-0.38755035,-3.0187,-0.1209,9.329599,1.6065999,0.8662,-3.2103,0.123196,0.075935,-0.869434,0.0,0.0,0.0,-28.3125,35.8125,-40.6875,0.026984,0.15508,-0.20416,0.30641,-1.0670594,-0.39292598,0.0,0.0,0.0,182935.0,0.0,0.0,0.154564,0.11961,-0.853944,0.0,0.0,0.0,0.0,2.0,0.0,0.0,0.0,0.0
1582107261971,-3.98716,-1.0947438,8.166977,-7.125,-9.375,-43.375,123.88,1.23,-15.2699995,1374.0,1676.0,6526.0,5.0,52.0,0.0,0.13590878,-1.5811461,-0.20961404,-2.5842,-0.20369999,9.4578,-0.9658,0.4685,-5.2802,0.112284,0.071947,-0.873908,0.0,0.0,0.0,-29.625,35.9375,-41.5625,0.021701,0.132317,-0.231678,0.13772394,-1.5852127,-0.21498966,0.0,0.0,0.0,182935.0,0.0,0.0,0.131109,0.124076,-0.864084,0.0,0.0,0.0,0.0,2.0,0.0,0.0,0.0,0.0
1582107262023,-2.1633527,-0.12758222,9.899134,-7.6875,-9.3125,-43.4375,124.299995,1.4,-13.46,1374.0,1676.0,6526.0,5.0,52.0,0.0,-0.0421497,-0.69715434,0.07220427,-2.2826998,-0.23339999,9.5344,-0.29639998,-0.904,-2.8167999,0.097936,0.065489,-0.877363,0.0,0.0,0.0,-30.1875,36.0,-41.625,0.017625,0.117705,-0.238829,-0.047525316,-0.7381521,0.083531454,0.0,0.0,0.0,182935.0,0.0,0.0,0.093766,0.084336996,-0.877002,0.0,0.0,0.0,0.0,2.0,0.0,0.0,0.0,0.0
1582107262075,-0.97789735,-0.023127988,15.039235,-7.9375,-9.375,-43.125,124.32,1.38,-12.91,1374.0,1676.0,6526.0,5.0,52.0,0.0,-0.0024260078,0.40437534,0.023073252,-2.1919,-0.23079999,9.555699,-0.2694,-0.5929,3.6439998,0.093844,0.063131,-0.87795,0.0,0.0,0.0,-30.4375,35.9375,-41.3125,0.016323,0.113638,-0.235524,-6.283185E-4,0.40030873,0.017697638,0.0,0.0,0.0,182935.0,0.0,0.0,0.089728996,0.05848,-0.862725,0.0,0.0,0.0,0.0,2.0,0.0,0.0,0.0,0.0
1582107262129,-1.0798041,-0.865207,12.107114,-7.8125,-9.4375,-42.9375,123.99,1.39,-12.54,1345.0,1639.0,6388.0,5.0,52.0,0.0,-0.09705776,0.20320868,0.42097342,-2.1306999,-0.23259999,9.5695,0.90489995,-0.5028,5.1208,0.090816,0.061976,-0.876935,0.0,0.0,0.0,-30.3125,35.875,-41.125,0.015039,0.109859,-0.234047,-0.09524262,0.19914207,0.4155978,0.0,0.0,0.0,182935.0,0.0,0.0,0.080974996,0.074672,-0.881886,0.0,0.0,0.0,0.0,2.0,0.0,0.0,0.0,0.0
1582107262181,-1.3468918,0.41692626,9.725717,-9.75,-9.0,-42.9375,122.579994,1.4499999,-12.05,1345.0,1639.0,6388.0,5.0,52.0,0.0,-0.11334168,-0.6170088,0.42032763,-2.0486999,-0.2429,9.5871,0.2933,-0.1002,2.475,0.08607,0.061497,-0.871536,0.0,0.0,0.0,-32.25,36.3125,-41.125,0.0124429995,0.106089,-0.224057,-0.11154399,-0.6210754,0.41495204,0.0,0.0,0.0,182935.0,0.0,0.0,0.071636,0.057266,-0.874319,0.0,0.0,0.0,0.0,2.0,0.0,0.0,0.0,0.0
1582107262232,-1.475422,-0.2819316,4.9388647,-11.5,-8.4375,-42.9375,121.11,1.3199999,-9.599999,1345.0,1640.0,6397.0,5.0,52.0,0.0,-0.03769911,-0.978833,0.64210665,-1.6358999,-0.22309999,9.6666,0.3218,0.026999999,1.6305,0.067231,0.051158,-0.867248,0.0,0.0,0.0,-34.0,36.875,-41.125,0.007499,0.084625,-0.211857,-0.035901424,-0.98288214,0.636731,0.0,0.0,0.0,182935.0,0.0,0.0,0.061915,0.055366,-0.860976,0.0,0.0,0.0,0.0,2.0,0.0,0.0,0.0,0.0
1582107262283,-1.4067276,0.62549955,7.3893876,-13.3125,-8.4375,-42.75,119.259995,1.1999999,-7.3199997,1345.0,1640.0,6397.0,5.0,52.0,0.0,-0.0022514747,-0.8214916,0.20875883,-1.2498,-0.20459999,9.7245,-0.2015,1.0088,-2.2224,0.049782,0.041337,-0.860664,0.0,0.0,0.0,-35.8125,36.875,-40.9375,0.00348,0.065627,-0.199653,-4.5378561E-4,-0.8255407,0.20338322,0.0,0.0,0.0,182935.0,0.0,0.0,0.063693,0.019974,-0.816926,0.0,0.0,0.0,0.0,2.0,0.0,0.0,0.0,0.0
1582107262335,-1.040453,-0.14442782,9.402653,-14.375,-8.5625,-42.6875,118.96,1.18,-6.3999996,1321.0,1611.0,6328.0,5.0,52.0,0.0,1.0471976E-4,-0.009651671,0.0013089969,-1.0939,-0.20199999,9.7432995,-0.4064,-0.0823,-0.80939996,0.042861998,0.037287,-0.859748,0.0,0.0,0.0,-36.875,36.75,-40.875,0.001633,0.05757,-0.194364,0.0019198621,-0.013718287,-0.004049164,0.0,0.0,0.0,182935.0,0.0,0.0,0.041513998,0.024564,-0.838977,0.0,0.0,0.0,0.0,2.0,0.0,0.0,0.0,0.0
1582107262385,-1.1750646,-0.20005949,9.393823,-14.1875,-8.75,-42.625,118.909996,1.16,-6.3199997,1321.0,1611.0,6328.0,5.0,52.0,0.0,-0.015795229,0.02666863,-0.0073303827,-1.0816,-0.19849999,9.7446995,0.50299996,0.1593,0.56189996,0.042404,0.036822,-0.859674,0.0,0.0,0.0,-36.6875,36.5625,-40.8125,0.001717,0.056831,-0.194917,-0.013980087,0.022619467,-0.012705997,0.0,0.0,0.0,182935.0,0.0,0.0,0.036098,0.030611,-0.849925,0.0,0.0,0.0,0.0,2.0,0.0,0.0,0.0,0.0
1582107262435,-0.9562346,-0.14982915,9.621205,-14.1875,-9.1875,-42.625,118.909996,1.13,-6.27,1321.0,1611.0,6328.0,5.0,52.0,0.0,-4.886922E-4,-9.250245E-4,0.0037350047,-1.0724,-0.1935,9.7459,0.1114,0.0464,-0.155,0.042125,0.036364,-0.859636,0.0,0.0,0.0,-36.6875,36.125,-40.8125,0.0017,0.056594,-0.194428,0.0012915436,-0.0049741883,-0.0016231562,0.0,0.0,0.0,182935.0,0.0,0.0,0.040334,0.034695,-0.853798,0.0,0.0,0.0,0.0,2.0,0.0,0.0,0.0,0.0
1582107262487,-0.96611786,-0.1483543,9.6206875,-14.25,-8.9375,-43.1875,118.89,1.0699999,-6.15,1300.0,1586.0,6300.0,5.0,52.0,0.0,1.3962634E-4,-0.0021991148,0.0017802358,-1.0519999,-0.1821,9.7483,0.091,0.0546,-0.1378,0.041517,0.035336,-0.859635,0.0,0.0,0.0,-36.75,36.375,-41.375,0.001794,0.055084,-0.192807,0.0019547688,-0.0062482785,-0.003577925,0.0,0.0,0.0,182935.0,0.0,0.0,0.039046,0.03197,-0.856605,0.0,0.0,0.0,0.0,2.0,0.0,0.0,0.0,0.0
1582107262538,-0.97499555,-0.15343003,9.619969,-14.5625,-8.4375,-43.0625,118.88,1.03,-6.0899997,1300.0,1586.0,6300.0,5.0,52.0,0.0,-8.5521134E-4,-6.457718E-4,0.0011868239,-1.0417,-0.1769,9.749499,0.0806,0.049399998,-0.139,0.041193,0.03484,-0.859634,0.0,0.0,0.0,-36.875,36.875,-41.375,0.00181,0.054465,-0.192141,9.424778E-4,-0.004694936,-0.004171337,0.0,0.0,0.0,182935.0,0.0,0.0,0.038662,0.032734,-0.849765,0.0,0.0,0.0,0.0,2.0,0.0,0.0,0.0,0.0
1582107262588,-0.7911304,-0.08593269,9.730323,-14.875,-8.875,-42.75,118.88,1.03,-6.0899997,1309.0,1597.0,6333.0,5.0,52.0,0.0,-0.01277581,0.018779743,-0.0033510323,-1.0411999,-0.1769,9.749599,0.0703,0.0396,-0.1488,0.041172,0.034829,-0.859602,0.0,0.0,0.0,-37.375,36.4375,-40.9375,0.001802,0.054442,-0.192087,-0.010960667,0.014730579,-0.008726646,0.0,0.0,0.0,182935.0,0.0,0.0,0.038531,0.033114,-0.84775597,0.0,0.0,0.0,0.0,2.0,0.0,0.0,0.0,0.0
1582107262641,-0.96630937,-0.1500494,9.607452,-14.5625,-8.875,-42.5625,118.869995,1.0,-6.0299997,1309.0,1597.0,6333.0,5.0,52.0,0.0,-9.5993106E-4,-6.6322513E-4,0.002391101,-1.0306,-0.17119999,9.7508,0.0695,0.0437,-0.1599,0.040849,0.034306,-0.859605,0.0,0.0,0.0,-37.0625,36.4375,-40.75,0.001822,0.053794,-0.191317,0.0014486233,-0.0042586033,-0.0027227136,0.0,0.0,0.0,182935.0,0.0,0.0,0.038367,0.032503,-0.851266,0.0,0.0,0.0,0.0,2.0,0.0,0.0,0.0,0.0
1582107262690,-0.95430964,-0.15329595,9.615785,-14.5,-9.0,-42.3125,118.869995,0.95,-5.93,1316.0,1605.0,6397.0,5.0,52.0,0.0,-1.5707963E-4,3.8397242E-4,0.0022165682,-1.0138,-0.1633,9.7527,0.0625,0.025999999,-0.1618,0.040315,0.033517,-0.85965997,0.0,0.0,0.0,-37.0,36.3125,-40.5,0.001831,0.052807,-0.190262,0.0016406095,-0.0036651914,-0.0031415927,0.0,0.0,0.0,182935.0,0.0,0.0,0.038595,0.032596,-0.851732,0.0,0.0,0.0,0.0,2.0,0.0,0.0,0.0,0.0
1582107262742,-0.9632831,-0.17340724,9.652819,-14.625,-9.0,-42.1875,118.869995,0.94,-5.89,1316.0,1605.0,6397.0,5.0,52.0,0.0,1.5707963E-4,-0.0017453292,0.006318092,-1.0078,-0.1607,9.7534,0.0369,0.0234,-0.15259999,0.040119,0.033248,-0.859682,0.0,0.0,0.0,-37.125,36.3125,-40.375,0.001835,0.052466,-0.189873,0.0019547688,-0.005794493,9.424778E-4,0.0,0.0,0.0,182935.0,0.0,0.0,0.038708,0.032703,-0.85132897,0.0,0.0,0.0,0.0,2.0,0.0,0.0,0.0,0.0
1582107262792,-0.97050405,-0.15982734,9.610297,-14.25,-9.25,-42.5625,118.85,0.98999995,-6.0,1316.0,1605.0,6397.0,5.0,52.0,0.0,-3.4906585E-5,-0.004276057,0.0040142573,-1.0259,-0.1699,9.7513,0.0648,0.012999999,-0.1408,0.04067,0.034132,-0.859546,0.0,0.0,0.0,-36.75,36.0625,-40.75,0.001785,0.053465,-0.190874,0.0017627826,-0.008342674,-0.0013439035,0.0,0.0,0.0,182935.0,0.0,0.0,0.038597,0.032412,-0.85537,0.0,0.0,0.0,0.0,2.0,0.0,0.0,0.0,0.0
1582107262844,-0.97528285,-0.15279795,9.622795,-14.3125,-8.75,-42.5,118.82,1.02,-6.0499997,1321.0,1610.0,6379.0,5.0,52.0,0.0,0.00143117,-0.0013439035,0.0017278759,-1.0313,-0.1716,9.7507,0.08,0.0442,-0.1598,0.040949,0.034551,-0.859387,0.0,0.0,0.0,-36.8125,36.5625,-40.6875,0.001851,0.053632,-0.191022,0.003228859,-0.0053930674,-0.0036477381,0.0,0.0,0.0,182935.0,0.0,0.0,0.03842,0.032094,-0.855339,0.0,0.0,0.0,0.0,2.0,0.0,0.0,0.0,0.0
1582107262894,-0.95580363,-0.15534538,9.613515,-14.5,-8.875,-42.375,118.82,0.98999995,-5.98,1321.0,1610.0,6379.0,5.0,52.0,0.0,2.9670598E-4,-0.0025481808,0.0017802358,-1.0222,-0.1689,9.751699,0.0709,0.0316,-0.151,0.040524,0.034001,-0.859428,0.0,0.0,0.0,-37.0,36.4375,-40.5625,0.001789,0.053181,-0.190574,0.002094395,-0.0065973448,-0.003577925,0.0,0.0,0.0,182935.0,0.0,0.0,0.038447,0.032485,-0.851946,0.0,0.0,0.0,0.0,2.0,0.0,0.0,0.0,0.0
1582107262945,-0.9667116,-0.14569196,9.622106,-14.5,-9.1875,-42.8125,118.79,0.96999997,-5.96,1324.0,1614.0,6402.0,5.0,52.0,0.0,-8.726646E-5,-0.0013613568,0.0034732053,-1.0196999,-0.1653,9.752,0.0587,0.018199999,-0.1415,0.0405,0.033793,-0.859282,0.0,0.0,0.0,-37.0,36.125,-41.0,0.002038,0.051946,-0.189253,0.0016929694,-0.005427974,-0.0018849556,0.0,0.0,0.0,182935.0,0.0,0.0,0.039107,0.032235,-0.85461,0.0,0.0,0.0,0.0,2.0,0.0,0.0,0.0,0.0
1582107262995,-0.95831275,-0.14392026,9.628464,-14.5,-9.0625,-42.8125,118.799995,1.01,-6.0099998,1324.0,1614.0,6402.0,5.0,52.0,0.0,1.2217305E-4,-0.00424115,0.005253441,-1.0267999,-0.1721,9.7512,0.0755,0.024999999,-0.1505,0.040637,0.03427,-0.859302,0.0,0.0,0.0,-37.0,36.25,-41.0,0.001867,0.052212,-0.189558,0.0019198621,-0.008307767,-1.0471976E-4,0.0,0.0,0.0,182935.0,0.0,0.0,0.03856,0.032048,-0.854437,0.0,0.0,0.0,0.0,2.0,0.0,0.0,0.0,0.0
1582107263046,-0.97819424,-0.14318284,9.602971,-14.4375,-9.0625,-42.8125,118.79,1.04,-6.06,1324.0,1614.0,6402.0,5.0,52.0,0.0,0.004171337,-0.007225663,0.0034208454,-1.0353,-0.1778,9.750199,0.093899995,0.0503,-0.12979999,0.040863,0.034747,-0.85924,0.0,0.0,0.0,-36.9375,36.25,-41.0,0.001739,0.05339,-0.190798,0.005986479,-0.011274827,-0.0019373155,0.0,0.0,0.0,182935.0,0.0,0.0,0.038765,0.032088,-0.852991,0.0,0.0,0.0,0.0,2.0,0.0,0.0,0.0,0.0
1582107263098,-0.8689994,-0.12889424,9.648862,-14.25,-8.8125,-43.0,118.79,0.98999995,-5.95,1326.0,1618.0,6418.0,5.0,52.0,0.0,-0.015917404,0.047839474,-0.009162978,-1.0174999,-0.169,9.7522,0.1839,0.070999995,-0.122099996,0.040306,0.033897,-0.859283,0.0,0.0,0.0,-36.75,36.5,-41.1875,0.00196,0.052869,-0.190899,-0.014102261,0.04379031,-0.014538593,0.0,0.0,0.0,182935.0,0.0,0.0,0.037263,0.03059,-0.854191,0.0,0.0,0.0,0.0,2.0,0.0,0.0,0.0,0.0
1582107263148,-0.9117311,-0.13447753,9.613927,-14.375,-8.5625,-42.8125,118.79,1.05,-6.0899997,1326.0,1618.0,6418.0,5.0,52.0,0.0,-6.6322513E-4,-0.0010646508,0.004415683,-1.041,-0.1796,9.749499,-0.067,-0.0164,-0.1586,0.041066,0.034978,-0.859215,0.0,0.0,0.0,-36.875,36.75,-41.0,0.001678,0.054281,-0.191606,0.0011170107,-0.005131268,-9.424778E-4,0.0,0.0,0.0,182935.0,0.0,0.0,0.041089,0.033756,-0.850119,0.0,0.0,0.0,0.0,2.0,0.0,0.0,0.0,0.0
1582107263204,-0.9712893,-0.14669752,9.607539,-14.375,-9.125,-42.75,118.79,0.97999996,-5.94,1326.0,1617.0,6436.0,5.0,52.0,0.0,0.0,-0.0016755161,0.003228859,-1.0213,-0.1731,9.751699,0.0603,0.0162,-0.14119999,0.040376,0.034167,-0.859394,0.0,0.0,0.0,-36.875,36.1875,-40.9375,0.001678,0.052524,-0.189718,0.0017976891,-0.005742133,-0.0021293017,0.0,0.0,0.0,182935.0,0.0,0.0,0.038651,0.032878,-0.851589,0.0,0.0,0.0,0.0,2.0,0.0,0.0,0.0,0.0
1582107263253,-0.9760107,-0.14937903,9.6087265,-14.25,-9.0,-42.375,118.77,0.90999997,-5.81,1326.0,1617.0,6436.0,5.0,52.0,0.0,6.1086525E-4,-0.0013788101,0.0021991148,-0.9942,-0.1559,9.7548,0.0332,0.0186,-0.1639,0.039618,0.032717,-0.859304,0.0,0.0,0.0,-36.75,36.3125,-40.5625,0.00173,0.051464,-0.188593,0.0024260078,-0.005427974,-0.003159046,0.0,0.0,0.0,182935.0,0.0,0.0,0.038670998,0.032354,-0.854301,0.0,0.0,0.0,0.0,2.0,0.0,0.0,0.0,0.0
1582107263305,-0.8759043,-0.11055466,9.692523,-14.125,-8.3125,-42.6875,118.759995,0.89,-5.79,1329.0,1620.0,6449.0,5.0,52.0,0.0,-0.0010995574,0.019303342,4.1887903E-4,-0.9898,-0.1531,9.7553,0.0385,0.0158,-0.1546,0.039491,0.032478,-0.859257,0.0,0.0,0.0,-36.625,37.0,-40.875,0.001818,0.051141,-0.188196,6.806784E-4,0.015254177,-0.004956735,0.0,0.0,0.0,182935.0,0.0,0.0,0.038569,0.032651,-0.850115,0.0,0.0,0.0,0.0,2.0,0.0,0.0,0.0,0.0
1582107263355,-0.9801383,-0.1497621,9.582572,-14.125,-8.1875,-42.625,118.74,0.91999996,-5.8599997,1329.0,1620.0,6449.0,5.0,52.0,0.0,-1.5707963E-4,-0.0026703537,0.002687807,-1.0023,-0.1568,9.754,0.0413,0.0195,-0.1827,0.039942,0.032978,-0.859132,0.0,0.0,0.0,-36.625,37.125,-40.8125,0.001867,0.051834,-0.188776,0.0016231562,-0.0067195175,-0.0026703537,0.0,0.0,0.0,182935.0,0.0,0.0,0.038746,0.0333,-0.845687,0.0,0.0,0.0,0.0,2.0,0.0,0.0,0.0,0.0
1582107263405,-0.97755253,-0.15862066,9.604274,-14.125,-8.625,-42.375,118.74,0.87,-5.77,1329.0,1620.0,6449.0,5.0,52.0,0.0,-0.0011519173,-0.0044854963,0.0021293017,-0.98639995,-0.14909999,9.7557,0.0155,0.0019999999,-0.1648,0.039443,0.032223,-0.859186,0.0,0.0,0.0,-36.625,36.6875,-40.5625,0.00191,0.050991,-0.18779,6.283185E-4,-0.00853466,-0.003228859,0.0,0.0,0.0,182935.0,0.0,0.0,0.03831,0.032713,-0.848029,0.0,0.0,0.0,0.0,2.0,0.0,0.0,0.0,0.0
1582107263455,-0.93801945,-0.1514572,9.652244,-14.3125,-9.1875,-42.375,118.729996,0.95,-5.9,1329.0,1620.0,6416.0,5.0,52.0,0.0,4.712389E-4,7.15585E-4,0.002565634,-1.0092,-0.162,9.7532,0.0481,0.0345,-0.1427,0.040107,0.03339,-0.859067,0.0,0.0,0.0,-36.8125,36.125,-40.5625,0.001818,0.052153,-0.189015,0.0012915436,-0.006405358,-0.0020769418,0.0,0.0,0.0,182935.0,0.0,0.0,0.038899,0.032401,-0.855115,0.0,0.0,0.0,0.0,2.0,0.0,0.0,0.0,0.0
1582107263507,-0.9592321,-0.15175408,9.684518,-14.5625,-8.625,-42.4375,118.71999,0.9,-5.8199997,1329.0,1620.0,6416.0,5.0,52.0,0.0,6.1086525E-4,9.0757123E-4,0.0019547688,-0.99509996,-0.15439999,9.7548,0.0242,0.0072999997,-0.18349999,0.039681,0.03269,-0.859084,0.0,0.0,0.0,-37.0625,36.6875,-40.625,0.001777,0.051477,-0.188291,0.0024260078,-0.0031241393,-0.003403392,0.0,0.0,0.0,182935.0,0.0,0.0,0.038796,0.032865,-0.851487,0.0,0.0,0.0,0.0,2.0,0.0,0.0,0.0,0.0
1582107263557,-0.9944939,-0.15867811,9.558467,-14.6875,-8.1875,-42.3125,118.71,0.88,-5.79,1332.0,1624.0,6416.0,5.0,52.0,0.0,-0.002513274,-0.007347836,0.004468043,-0.9895,-0.15079999,9.7554,0.0186,0.0037,-0.1841,0.039525,0.032388,-0.859042,0.0,0.0,0.0,-37.1875,37.125,-40.5,0.001843,0.051218,-0.187972,-6.981317E-4,-0.011397,-9.0757123E-4,0.0,0.0,0.0,182935.0,0.0,0.0,0.038313,0.033412,-0.843913,0.0,0.0,0.0,0.0,2.0,0.0,0.0,0.0,0.0
1582107263609,-0.9663668,-0.15546988,9.610048,-14.5625,-8.3125,-42.5,118.71999,0.89,-5.77,1332.0,1624.0,6416.0,5.0,52.0,0.0,-1.7453292E-4,-0.0015009831,9.250245E-4,-0.98609996,-0.1515,9.7557,0.0348,0.0044,-0.1452,0.039358,0.03233,-0.859077,0.0,0.0,0.0,-37.0625,37.0,-40.6875,0.001818,0.050978,-0.18775,0.0016231562,-0.0055676005,-0.0044331364,0.0,0.0,0.0,182935.0,0.0,0.0,0.037963,0.033125,-0.843546,0.0,0.0,0.0,0.0,2.0,0.0,0.0,0.0,0.0
1582107263658,-0.9693548,-0.14363295,9.622086,-14.25,-8.3125,-42.5625,118.759995,0.87,-5.69,1333.0,1625.0,6421.0,5.0,52.0,0.0,0.001012291,-0.0013788101,0.0033510323,-0.97309995,-0.1495,9.757,0.0219,0.0023999999,-0.14649999,0.038851,0.03189,-0.859289,0.0,0.0,0.0,-36.75,37.0,-40.75,0.001624,0.05042,-0.187206,0.0028099802,-0.0054454273,-0.0020071287,0.0,0.0,0.0,182935.0,0.0,0.0,0.037762,0.033126,-0.845418,0.0,0.0,0.0,0.0,2.0,0.0,0.0,0.0,0.0
1582107263710,-0.9660891,-0.15757678,9.618648,-14.5,-8.5625,-42.625,118.75,0.87,-5.69,1333.0,1625.0,6421.0,5.0,52.0,0.0,7.330383E-4,-0.0013788101,0.002984513,-0.9729,-0.1495,9.7571,0.0117999995,0.0023999999,-0.13669999,0.03884,0.031886,-0.859259,0.0,0.0,0.0,-37.0,36.75,-40.8125,0.001614,0.050464,-0.187231,0.0025481808,-0.005427974,-0.0023736479,0.0,0.0,0.0,182935.0,0.0,0.0,0.038409,0.033068,-0.848478,0.0,0.0,0.0,0.0,2.0,0.0,0.0,0.0,0.0
1582107263762,-0.9784049,-0.14081737,9.622996,-14.5,-8.75,-42.375,118.71999,0.87,-5.71,1333.0,1625.0,6421.0,5.0,52.0,0.0,3.6651915E-4,-0.001134464,0.0024958209,-0.9762,-0.1495,9.7567,0.015199999,0.0122,-0.1462,0.03898,0.031981,-0.859121,0.0,0.0,0.0,-37.0,36.5625,-40.5625,0.001726,0.050489,-0.187198,0.0021642083,-0.005183628,-0.00286234,0.0,0.0,0.0,182935.0,0.0,0.0,0.038375,0.032486,-0.850429,0.0,0.0,0.0,0.0,2.0,0.0,0.0,0.0,0.0
1582107263812,-0.96957505,-0.1532768,9.622,-14.5625,-8.6875,-42.1875,118.689995,0.84999996,-5.68,1333.0,1625.0,6419.0,5.0,52.0,0.0,-5.2359875E-4,-0.0017453292,0.0022165682,-0.97209996,-0.1449,9.757199,0.0209,0.0075999997,-0.1369,0.038909,0.031682,-0.858981,0.0,0.0,0.0,-37.0625,36.625,-40.375,0.001831,0.050381,-0.187023,0.001256637,-0.005794493,-0.0031415927,0.0,0.0,0.0,182935.0,0.0,0.0,0.038499,0.03264,-0.851758,0.0,0.0,0.0,0.0,2.0,0.0,0.0,0.0,0.0
1582107263865,-0.97610646,-0.14444697,9.625208,-14.4375,-8.8125,-42.5625,118.68,0.84999996,-5.68,1333.0,1625.0,6419.0,5.0,52.0,0.0,-6.981317E-5,-0.0016580628,0.0019198621,-0.97209996,-0.14549999,9.757199,0.0209,0.0082,-0.1467,0.038891,0.031712,-0.858965,0.0,0.0,0.0,-36.9375,36.5,-40.75,0.001777,0.050425,-0.18705,0.0017278759,-0.0057072267,-0.0034382986,0.0,0.0,0.0,182935.0,0.0,0.0,0.038358,0.032514,-0.851116,0.0,0.0,0.0,0.0,2.0,0.0,0.0,0.0,0.0
1582107263915,-0.96508354,-0.15560396,9.628484,-13.875,-8.9375,-42.5,118.67,0.84999996,-5.68,1333.0,1625.0,6419.0,5.0,52.0,0.0,-7.15585E-4,-0.0013788101,0.0024085543,-0.9716,-0.1454,9.757299,0.0301,0.0082,-0.1467,0.038868,0.031698,-0.858931,0.0,0.0,0.0,-36.375,36.375,-40.6875,0.001773,0.050397,-0.186993,0.0010646508,-0.005427974,-0.0029496064,0.0,0.0,0.0,182935.0,0.0,0.0,0.038583,0.032429,-0.853136,0.0,0.0,0.0,0.0,2.0,0.0,0.0,0.0,0.0
1582107263964,-0.97000605,-0.15749058,9.623599,-14.0,-8.8125,-42.1875,118.67,0.84999996,-5.68,1333.0,1625.0,6419.0,5.0,52.0,0.0,-8.726646E-5,0.0,0.0021118484,-0.9711,-0.1454,9.757299,0.0101,-0.0016,-0.1468,0.038847,0.031686,-0.858903,0.0,0.0,0.0,-36.5,36.5,-40.375,0.001768,0.050375998,-0.186924,0.0016929694,-0.004049164,-0.0032463125,0.0,0.0,0.0,182935.0,0.0,0.0,0.038684,0.032635,-0.85487497,0.0,0.0,0.0,0.0,2.0,0.0,0.0,0.0,0.0
1582107264018,-0.9686461,-0.1500973,9.612758,-14.0,-8.8125,-42.0625,118.659996,0.84999996,-5.68,1331.0,1623.0,6413.0,5.0,52.0,0.0,-0.005986479,-0.0024609142,0.0015358897,-0.9709,-0.1452,9.757299,0.0,0.0079,-0.137,0.038839,0.031671,-0.85886997,0.0,0.0,0.0,-36.5,36.5,-40.25,0.001764,0.050362,-0.186874,-0.00418879,-0.0065275314,-0.003822271,0.0,0.0,0.0,182935.0,0.0,0.0,0.038701,0.032439,-0.853668,0.0,0.0,0.0,0.0,2.0,0.0,0.0,0.0,0.0
1582107264067,-0.9638194,-0.14887147,9.620871,-14.0625,-8.6875,-42.0,118.56,0.84,-5.7599998,1331.0,1623.0,6413.0,5.0,52.0,0.0,-2.6179937E-4,-8.901179E-4,0.003281219,-0.9849,-0.14389999,9.755899,0.023899999,0.0164,-0.1454,0.039464,0.032015,-0.858393,0.0,0.0,0.0,-36.5625,36.625,-40.1875,0.002224,0.050824,-0.187178,0.0015358897,-0.004939282,-0.0020769418,0.0,0.0,0.0,182935.0,0.0,0.0,0.038861,0.032347,-0.852268,0.0,0.0,0.0,0.0,2.0,0.0,0.0,0.0,0.0
1582107264121,-0.9617317,-0.15138058,9.60976,-14.125,-8.1875,-42.0625,118.619995,0.84999996,-5.7,1331.0,1623.0,6413.0,5.0,52.0,0.0,-4.712389E-4,-9.0757123E-4,0.001972222,-0.97459996,-0.1452,9.757,0.0234,-0.0018,-0.1366,0.038993,0.031785,-0.858678,0.0,0.0,0.0,-36.625,37.125,-40.25,0.001835,0.05049,-0.186898,0.0013264503,-0.004956735,-0.0033859387,0.0,0.0,0.0,182935.0,0.0,0.0,0.037836,0.033048,-0.845514,0.0,0.0,0.0,0.0,2.0,0.0,0.0,0.0,0.0
1582107264171,-0.9676789,-0.1576917,9.619213,-14.375,-8.8125,-41.75,118.61,0.84,-5.67,1326.0,1618.0,6394.0,5.0,52.0,0.0,-7.5049157E-4,-0.0010471975,0.0028972465,-0.9702,-0.1432,9.7574,-4.9999997E-4,0.0058999998,-0.1567,0.038849,0.031586,-0.858656,0.0,0.0,0.0,-36.875,36.5,-39.9375,0.001859,0.050243,-0.186602,0.0010471975,-0.0051138145,-0.0024609142,0.0,0.0,0.0,182935.0,0.0,0.0,0.038507,0.032813,-0.848249,0.0,0.0,0.0,0.0,2.0,0.0,0.0,0.0,0.0
1582107264222,-0.95831275,-0.14470555,9.620075,-14.375,-8.625,-42.125,118.61,0.87,-5.74,1326.0,1618.0,6394.0,5.0,52.0,0.0,-5.235988E-5,-0.0019198621,0.0021118484,-0.98149997,-0.1497,9.7562,0.030199999,0.012399999,-0.13589999,0.039174,0.032164,-0.858605,0.0,0.0,0.0,-36.875,36.6875,-40.3125,0.001835,0.050689,-0.18701799,0.0017278759,-0.005969026,-0.0032463125,0.0,0.0,0.0,182935.0,0.0,0.0,0.038379,0.032482,-0.85253,0.0,0.0,0.0,0.0,2.0,0.0,0.0,0.0,0.0
1582107264272,-0.9681098,-0.14366168,9.616694,-14.125,-8.375,-41.9375,118.579994,0.84,-5.7,1318.0,1608.0,6329.0,5.0,52.0,0.0,-5.7595863E-4,-5.5850536E-4,0.0027925267,-0.97459996,-0.14459999,9.757,0.0234,-0.0023999999,-0.1366,0.038999,0.031769,-0.858519,0.0,0.0,0.0,-36.625,36.9375,-40.125,0.001883,0.050497,-0.186778,0.0012217305,-0.0046251225,-0.002565634,0.0,0.0,0.0,182935.0,0.0,0.0,0.038469,0.032864,-0.848613,0.0,0.0,0.0,0.0,2.0,0.0,0.0,0.0,0.0
1582107264322,-0.965457,-0.15936765,9.623187,-14.5,-8.625,-41.875,118.56,0.84,-5.7,1318.0,1608.0,6329.0,5.0,52.0,0.0,-0.0026703537,-8.726646E-4,0.0019547688,-0.9747,-0.1432,9.757,0.0137,-0.0037999998,-0.1661,0.039032,0.031721,-0.858429,0.0,0.0,0.0,-37.0,36.6875,-40.0625,0.001918,0.050568,-0.186792,-8.5521134E-4,-0.004939282,-0.003403392,0.0,0.0,0.0,182935.0,0.0,0.0,0.038525,0.032853,-0.848059,0.0,0.0,0.0,0.0,2.0,0.0,0.0,0.0,0.0
1582107264373,-0.9899066,-0.14527059,9.613696,-14.375,-8.6875,-42.1875,118.549995,0.84,-5.7,1129.0,1377.0,5229.0,5.0,52.0,0.0,2.6179937E-4,-0.0013264503,0.0028099802,-0.97459996,-0.1433,9.757,0.013499999,0.006,-0.1563,0.039021,0.031723,-0.858391,0.0,0.0,0.0,-36.875,36.625,-40.375,0.001914,0.050563,-0.186732,0.0020594886,-0.0053930674,-0.0025481808,0.0,0.0,0.0,182935.0,0.0,0.0,0.03852,0.03297,-0.847961,0.0,0.0,0.0,0.0,2.0,0.0,0.0,0.0,0.0
1582107264426,-0.9797935,-0.14462894,9.611361,-14.3125,-8.4375,-42.4375,118.549995,0.84,-5.7,1129.0,1377.0,5229.0,5.0,52.0,0.0,-8.0285146E-4,-3.4906584E-4,0.0035604716,-0.97419995,-0.1432,9.757,0.0131,0.0058999998,-0.1563,0.039002,0.031709,-0.858359,0.0,0.0,0.0,-36.8125,36.875,-40.625,0.001906,0.050543,-0.18667,9.773844E-4,-0.004415683,-0.0017976891,0.0,0.0,0.0,182935.0,0.0,0.0,0.038503,0.033013,-0.848519,0.0,0.0,0.0,0.0,2.0,0.0,0.0,0.0,0.0
1582107264476,-0.9737697,-0.14834474,9.60685,-14.5625,-8.25,-42.25,118.54,0.84,-5.69,1129.0,1377.0,5229.0,5.0,52.0,0.0,-5.235988E-5,-5.410521E-4,0.0029146997,-0.9737,-0.1432,9.7571,0.0029,0.0058999998,-0.1662,0.038982,0.031702,-0.85833,0.0,0.0,0.0,-37.0625,37.0625,-40.4375,0.001895,0.050519,-0.186602,0.0017453292,-0.004590216,-0.002443461,0.0,0.0,0.0,182935.0,0.0,0.0,0.038333,0.033389,-0.844227,0.0,0.0,0.0,0.0,2.0,0.0,0.0,0.0,0.0
1582107264528,-0.97340584,-0.13986926,9.6041,-14.5,-8.75,-42.0625,118.53,0.84,-5.69,1171.0,1428.0,5465.0,5.0,52.0,0.0,1.2217305E-4,-0.0010995574,0.0019373155,-0.9733,-0.1431,9.7571,0.0123,0.0058,-0.1662,0.038966,0.03169,-0.858296,0.0,0.0,0.0,-37.0,36.5625,-40.25,0.001895,0.050499998,-0.186537,0.0019198621,-0.0051661744,-0.0034208454,0.0,0.0,0.0,182935.0,0.0,0.0,0.038399,0.033016,-0.845897,0.0,0.0,0.0,0.0,2.0,0.0,0.0,0.0,0.0
1582107264578,-0.9737697,-0.15031756,9.621061,-14.625,-8.875,-42.25,118.52,0.84,-5.69,1171.0,1428.0,5465.0,5.0,52.0,0.0,3.4906585E-5,-0.0019547688,0.0028797933,-0.9729,-0.14299999,9.757199,0.0413,-0.0039999997,-0.1467,0.038947,0.031675998,-0.858259,0.0,0.0,0.0,-37.125,36.4375,-40.4375,0.001895,0.050476,-0.186462,0.001850049,-0.006021386,-0.0024783674,0.0,0.0,0.0,182935.0,0.0,0.0,0.038541,0.032518,-0.851128,0.0,0.0,0.0,0.0,2.0,0.0,0.0,0.0,0.0
1582107264630,-0.97071475,-0.15222335,9.617346,-14.625,-8.625,-41.875,118.52,0.83,-5.69,1190.0,1451.0,5594.0,5.0,52.0,0.0,5.7595863E-4,-9.5993106E-4,0.0022514747,-0.9723,-0.14299999,9.757199,0.011299999,-0.0039999997,-0.1467,0.038923,0.031662,-0.858232,0.0,0.0,0.0,-37.125,36.6875,-40.0625,0.001883,0.050449,-0.186407,0.002391101,-0.0050090947,-0.003106686,0.0,0.0,0.0,182935.0,0.0,0.0,0.03821,0.032733,-0.848378,0.0,0.0,0.0,0.0,2.0,0.0,0.0,0.0,0.0
1582107264679,-0.9585618,-0.15618815,9.608784,-15.0625,-8.875,-41.9375,118.509995,0.83,-5.68,1190.0,1451.0,5594.0,5.0,52.0,0.0,-8.726646E-4,-8.3775807E-4,0.0027052604,-0.97179997,-0.1427,9.757299,0.010799999,-0.0042999997,-0.1566,0.038905,0.031641,-0.858201,0.0,0.0,0.0,-37.5625,36.4375,-40.125,0.001891,0.050423,-0.186346,9.250245E-4,-0.004886922,-0.0026529005,0.0,0.0,0.0,182935.0,0.0,0.0,0.038141,0.032897,-0.847628,0.0,0.0,0.0,0.0,2.0,0.0,0.0,0.0,0.0
1582107264734,-0.9708105,-0.14880443,9.610364,-14.75,-9.0,-42.25,118.5,0.83,-5.68,1201.0,1464.0,5666.0,5.0,52.0,0.0,0.0,-2.9670598E-4,0.0021991148,-0.9715,-0.1427,9.757299,0.0105,-0.0042999997,-0.1762,0.038889,0.031635,-0.858176,0.0,0.0,0.0,-37.25,36.3125,-40.4375,0.001875,0.050409,-0.186293,0.0017802358,-0.0043458696,-0.003159046,0.0,0.0,0.0,182935.0,0.0,0.0,0.038555,0.032856,-0.851277,0.0,0.0,0.0,0.0,2.0,0.0,0.0,0.0,0.0
1582107264786,-0.9681386,-0.14784674,9.615507,-14.75,-8.875,-42.125,118.49,0.83,-5.68,1201.0,1464.0,5666.0,5.0,52.0,0.0,4.0142573E-4,-6.981317E-5,0.0030194195,-0.9712,-0.1428,9.757299,0.010199999,0.0055,-0.1664,0.038872,0.031631,-0.858139,0.0,0.0,0.0,-37.25,36.4375,-40.3125,0.001871,0.050398,-0.186234,0.0022165682,-0.004118977,-0.0023561944,0.0,0.0,0.0,182935.0,0.0,0.0,0.038691,0.032743,-0.851051,0.0,0.0,0.0,0.0,2.0,0.0,0.0,0.0,0.0
1582107264836,-0.9695272,-0.1590612,9.590262,-15.125,-8.625,-42.0,118.49,0.83,-5.68,1201.0,1464.0,5666.0,5.0,52.0,0.0,3.4906585E-5,-0.0010821042,0.0025481808,-0.9709,-0.1426,9.7574,0.0098,-0.0044,-0.1665,0.03886,0.031619,-0.858106,0.0,0.0,0.0,-37.625,36.6875,-40.1875,0.001867,0.050383,-0.186169,0.001850049,-0.005131268,-0.0028099802,0.0,0.0,0.0,182935.0,0.0,0.0,0.038201,0.032961998,-0.847359,0.0,0.0,0.0,0.0,2.0,0.0,0.0,0.0,0.0
1582107264886,-0.9564644,-0.15817055,9.620927,-14.8125,-8.5,-42.4375,118.479996,0.83,-5.67,1234.0,1505.0,5845.0,5.0,52.0,0.0,-5.2359875E-4,-1.2217305E-4,0.0023038345,-0.97029996,-0.1423,9.7574,0.0289,0.0148,-0.1665,0.038842,0.031591,-0.85807097,0.0,0.0,0.0,-37.3125,36.8125,-40.625,0.001879,0.05035,-0.1861,0.001256637,-0.004171337,-0.0030543262,0.0,0.0,0.0,182935.0,0.0,0.0,0.038089,0.032905,-0.844101,0.0,0.0,0.0,0.0,2.0,0.0,0.0,0.0,0.0
1582107264936,-0.95464486,-0.14248374,9.607836,-14.3125,-8.75,-42.375,118.46999,0.83,-5.67,1234.0,1505.0,5845.0,5.0,52.0,0.0,5.410521E-4,-0.0012042772,0.0014660766,-0.96999997,-0.1423,9.7575,0.0188,-0.0145,-0.17639999,0.038824,0.031588,-0.858042,0.0,0.0,0.0,-36.8125,36.5625,-40.5625,0.001859,0.050333,-0.186034,0.0023561944,-0.005270894,-0.0038920841,0.0,0.0,0.0,182935.0,0.0,0.0,0.03826,0.032586,-0.850048,0.0,0.0,0.0,0.0,2.0,0.0,0.0,0.0,0.0
1582107264986,-0.9711648,-0.1524436,9.602712,-14.5,-8.6875,-41.8125,118.46,0.83,-5.67,1271.0,1549.0,6029.0,5.0,52.0,0.0,7.5049157E-4,-8.0285146E-4,0.0027576203,-0.9697,-0.1423,9.7575,-0.0011,0.005,-0.1568,0.038808,0.031582,-0.858007,0.0,0.0,0.0,-37.0,36.625,-40.0,0.001859,0.050318,-0.185977,0.0025481808,-0.0048520155,-0.0026005406,0.0,0.0,0.0,182935.0,0.0,0.0,0.038703,0.032437,-0.851681,0.0,0.0,0.0,0.0,2.0,0.0,0.0,0.0,0.0
1582107265039,-0.98626745,-0.14234966,9.613084,-14.625,-8.4375,-42.125,118.46,0.83,-5.67,1271.0,1549.0,6029.0,5.0,52.0,0.0,2.2689281E-4,-7.853982E-4,0.003700098,-0.9695,-0.1422,9.7575,0.0084,0.0049,-0.147,0.0388,0.031575,-0.857974,0.0,0.0,0.0,-37.125,36.875,-40.3125,0.001855,0.050307,-0.185913,0.002042035,-0.0048520155,-0.0016580628,0.0,0.0,0.0,182935.0,0.0,0.0,0.0382,0.032822,-0.847593,0.0,0.0,0.0,0.0,2.0,0.0,0.0,0.0,0.0
1582107265089,-0.9566464,-0.14092271,9.609703,-15.125,-8.625,-42.375,118.45,0.83,-5.67,1271.0,1549.0,6029.0,5.0,52.0,0.0,-6.806784E-4,-0.0015358897,0.002984513,-0.96889997,-0.14199999,9.7576,0.0177,0.0047,-0.1471,0.038778,0.031553,-0.857944,0.0,0.0,0.0,-37.625,36.6875,-40.5625,0.001859,0.050275,-0.185845,0.0010995574,-0.005602507,-0.0023736479,0.0,0.0,0.0,182935.0,0.0,0.0,0.037946,0.032764,-0.845609,0.0,0.0,0.0,0.0,2.0,0.0,0.0,0.0,0.0
1582107265139,-0.9770833,-0.15518257,9.6043215,-14.4375,-8.6875,-42.125,118.439995,0.83,-5.66,1268.0,1547.0,6021.0,5.0,52.0,0.0,4.5378561E-4,-6.457718E-4,0.0027576203,-0.9686,-0.1422,9.7576,0.0075,0.0049,-0.15689999,0.038756,0.031553,-0.857914,0.0,0.0,0.0,-36.9375,36.625,-40.3125,0.001835,0.050261,-0.185779,0.0022514747,-0.004694936,-0.0026005406,0.0,0.0,0.0,182935.0,0.0,0.0,0.038132,0.033065,-0.847099,0.0,0.0,0.0,0.0,2.0,0.0,0.0,0.0,0.0
1582107265191,-0.95929915,-0.1499249,9.613592,-14.5,-8.75,-41.625,118.439995,0.83,-5.66,1268.0,1547.0,6021.0,5.0,52.0,0.0,6.1086525E-4,-1.3962634E-4,0.0015882496,-0.96819997,-0.14209999,9.7576,0.0169,-0.0049,-0.15689999,0.038741,0.031542,-0.857888,0.0,0.0,0.0,-37.0,36.5625,-39.8125,0.001822,0.050242,-0.185725,0.0024085543,-0.00418879,-0.0037699111,0.0,0.0,0.0,182935.0,0.0,0.0,0.038118,0.032422,-0.850718,0.0,0.0,0.0,0.0,2.0,0.0,0.0,0.0,0.0
1582107265241,-0.9613486,-0.14914918,9.619289,-14.4375,-8.625,-41.9375,118.43,0.83,-5.66,1265.0,1542.0,6001.0,5.0,52.0,0.0,-3.6651915E-4,-4.886922E-4,0.0030717794,-0.9677,-0.1419,9.7577,0.0165,-0.0050999997,-0.15699999,0.038723,0.031523,-0.857862,0.0,0.0,0.0,-36.9375,36.6875,-40.125,0.001835,0.050222,-0.185674,0.0014137167,-0.004555309,-0.0022863813,0.0,0.0,0.0,182935.0,0.0,0.0,0.038293,0.03284,-0.848958,0.0,0.0,0.0,0.0,2.0,0.0,0.0,0.0,0.0
1582107265295,-0.9510535,-0.15162958,9.622689,-14.3125,-8.3125,-42.0,118.42,0.83,-5.66,1265.0,1542.0,6001.0,5.0,52.0,0.0,-2.6179937E-4,-7.6794485E-4,0.0017453292,-0.96739995,-0.14199999,9.7577,0.016099999,0.0047,-0.15699999,0.038703,0.031521,-0.857821,0.0,0.0,0.0,-36.8125,37.0,-40.1875,0.001822,0.05021,-0.185606,0.0015358897,-0.004834562,-0.0036128315,0.0,0.0,0.0,182935.0,0.0,0.0,0.038237,0.033039,-0.846832,0.0,0.0,0.0,0.0,2.0,0.0,0.0,0.0,0.0
1582107265344,-0.9658784,-0.14025234,9.624538,-14.875,-8.8125,-42.0,118.409996,0.83,-5.66,1263.0,1539.0,5990.0,5.0,52.0,0.0,1.3962634E-4,-1.2217305E-4,0.0025481808,-0.9672,-0.1418,9.7578,0.0061,0.0045,-0.1374,0.038696,0.031511,-0.857786,0.0,0.0,0.0,-37.375,36.5,-40.1875,0.001818,0.050203,-0.185562,0.0019547688,-0.00418879,-0.0028099802,0.0,0.0,0.0,182935.0,0.0,0.0,0.038336,0.032786,-0.847463,0.0,0.0,0.0,0.0,2.0,0.0,0.0,0.0,0.0
1582107265395,-0.97698754,-0.15809393,9.632965,-14.5625,-9.125,-42.4375,118.409996,0.83,-5.65,1263.0,1539.0,5990.0,5.0,52.0,0.0,-4.712389E-4,-0.0012217305,0.0026005406,-0.96669996,-0.14209999,9.7578,0.0155,0.0047999998,-0.14729999,0.038667,0.031514,-0.857756,0.0,0.0,0.0,-37.0625,36.1875,-40.625,0.001794,0.05018,-0.185498,0.0013264503,-0.0052883476,-0.0027576203,0.0,0.0,0.0,182935.0,0.0,0.0,0.038396,0.032333,-0.852973,0.0,0.0,0.0,0.0,2.0,0.0,0.0,0.0,0.0
1582107265445,-0.9660221,-0.16305472,9.622182,-13.9375,-9.0625,-42.75,118.399994,0.83,-5.65,1263.0,1539.0,5990.0,5.0,52.0,0.0,0.003630285,-3.6651915E-4,0.002513274,-0.9665,-0.1422,9.7578,0.0055,-0.0047999998,-0.1277,0.038656,0.031515,-0.857728,0.0,0.0,0.0,-36.4375,36.25,-40.9375,0.001785,0.050176,-0.18545,0.0054454273,-0.004415683,-0.0028448866,0.0,0.0,0.0,182935.0,0.0,0.0,0.038764,0.032509,-0.85638,0.0,0.0,0.0,0.0,2.0,0.0,0.0,0.0,0.0
1582107265497,-0.9650356,-0.14781801,9.6212435,-14.375,-9.0,-42.9375,118.39,0.83,-5.65,1266.0,1544.0,6008.0,5.0,52.0,0.0,-8.726646E-5,-0.0013613568,0.001850049,-0.9662,-0.14209999,9.7578,0.015,0.014599999,-0.14729999,0.03864,0.031506,-0.857693,0.0,0.0,0.0,-36.875,36.3125,-41.125,0.001785,0.050159,-0.18539,0.0016929694,-0.005410521,-0.0035081117,0.0,0.0,0.0,182935.0,0.0,0.0,0.038613,0.032277,-0.853523,0.0,0.0,0.0,0.0,2.0,0.0,0.0,0.0,0.0
1582107265546,-0.96647215,-0.15726075,9.625409,-14.5,-9.1875,-42.3125,118.38,0.83,-5.65,1266.0,1544.0,6008.0,5.0,52.0,0.0,-4.0142573E-4,-0.0013264503,0.0026179939,-0.96599996,-0.1417,9.757899,0.005,0.0044,-0.1572,0.03864,0.031488,-0.857646,0.0,0.0,0.0,-37.0,36.125,-40.5,0.001806,0.050151,-0.185329,0.0013788101,-0.005375614,-0.0027401668,0.0,0.0,0.0,182935.0,0.0,0.0,0.03897,0.032162,-0.853444,0.0,0.0,0.0,0.0,2.0,0.0,0.0,0.0,0.0
1582107265597,-0.97147125,-0.15720327,9.627899,-14.5,-8.625,-41.9375,118.369995,0.83,-5.65,1274.0,1553.0,6042.0,5.0,52.0,0.0,2.0943952E-4,-0.0017104227,0.0032114058,-0.9659,-0.1416,9.757899,0.0047999998,0.0042999997,-0.14739999,0.038636,0.03148,-0.857609,0.0,0.0,0.0,-37.0,36.6875,-40.125,0.001806,0.050147,-0.18529099,0.0020071287,-0.0057595866,-0.0021467549,0.0,0.0,0.0,182935.0,0.0,0.0,0.038741,0.032512,-0.853206,0.0,0.0,0.0,0.0,2.0,0.0,0.0,0.0,0.0
1582107265649,-0.9776196,-0.15995182,9.615995,-14.375,-8.625,-42.5,118.36,0.82,-5.65,1274.0,1553.0,6042.0,5.0,52.0,0.0,0.0010995574,-0.0018675023,0.0025830872,-0.9655,-0.141,9.757899,0.0045,-0.006,-0.14739999,0.038632,0.031451,-0.857573,0.0,0.0,0.0,-36.875,36.6875,-40.6875,0.001831,0.050126,-0.185234,0.0028972465,-0.0059166662,-0.0027750735,0.0,0.0,0.0,182935.0,0.0,0.0,0.038327,0.032804,-0.846232,0.0,0.0,0.0,0.0,2.0,0.0,0.0,0.0,0.0
1582107265701,-0.9650548,-0.14793293,9.607146,-14.125,-9.1875,-42.75,118.36,0.82,-5.64,1265.0,1542.0,5996.0,5.0,52.0,0.0,-9.5993106E-4,-6.981317E-4,0.0028972465,-0.96529996,-0.1398,9.757999,0.0042999997,0.0025,-0.14739999,0.038655,0.031392,-0.857539,0.0,0.0,0.0,-36.625,36.125,-40.9375,0.001891,0.050103,-0.185168,8.3775807E-4,-0.0047472958,-0.0024609142,0.0,0.0,0.0,182935.0,0.0,0.0,0.038321,0.032468,-0.851392,0.0,0.0,0.0,0.0,2.0,0.0,0.0,0.0,0.0
1582107265752,-0.96633816,-0.15548903,9.619002,-14.1875,-9.125,-42.375,118.35,0.82,-5.64,1265.0,1542.0,5996.0,5.0,52.0,0.0,-8.3775807E-4,-0.0012391837,0.0022514747,-0.965,-0.1398,9.757999,0.0039999997,0.0025,-0.1475,0.038639,0.031387,-0.857504,0.0,0.0,0.0,-36.6875,36.1875,-40.5625,0.001883,0.050088,-0.185096,9.5993106E-4,-0.0052883476,-0.003106686,0.0,0.0,0.0,182935.0,0.0,0.0,0.038575,0.032294,-0.85530597,0.0,0.0,0.0,0.0,2.0,0.0,0.0,0.0,0.0
1582107265804,-0.9524421,-0.15330553,9.621626,-14.3125,-9.375,-42.1875,118.34,0.82,-5.64,1265.0,1542.0,5996.0,5.0,52.0,0.0,5.235988E-5,-1.3962634E-4,0.003281219,-0.9647,-0.1401,9.757999,0.0037,-0.0069,-0.13769999,0.038614,0.031396,-0.857476,0.0,0.0,0.0,-36.8125,35.9375,-40.375,0.001859,0.050076,-0.185042,0.0018675023,-0.00418879,-0.0020769418,0.0,0.0,0.0,182935.0,0.0,0.0,0.038749,0.032176,-0.857216,0.0,0.0,0.0,0.0,2.0,0.0,0.0,0.0,0.0
1582107265853,-0.96142524,-0.1464198,9.623791,-14.25,-9.25,-42.6875,118.329994,0.82,-5.64,1261.0,1538.0,5983.0,5.0,52.0,0.0,5.235988E-5,-0.0010297443,0.003228859,-0.9644,-0.1399,9.7581,0.0033,0.0026,-0.13769999,0.038596,0.031374,-0.857444,0.0,0.0,0.0,-36.75,36.0625,-40.875,0.001859,0.050058,-0.184979,0.001850049,-0.005078908,-0.0021293017,0.0,0.0,0.0,182935.0,0.0,0.0,0.038855,0.031879,-0.858395,0.0,0.0,0.0,0.0,2.0,0.0,0.0,0.0,0.0
1582107265903,-0.97085834,-0.15113159,9.613754,-14.625,-9.3125,-42.5625,118.329994,0.82,-5.64,1261.0,1538.0,5983.0,5.0,52.0,0.0,-6.1086525E-4,-6.457718E-4,0.002024582,-0.964,-0.1397,9.7581,0.0127,0.022,-0.1574,0.038589,0.031361,-0.857412,0.0,0.0,0.0,-37.125,36.0,-40.75,0.001875,0.050036,-0.184937,0.0011868239,-0.004694936,-0.0033335788,0.0,0.0,0.0,182935.0,0.0,0.0,0.038906,0.031802,-0.857331,0.0,0.0,0.0,0.0,2.0,0.0,0.0,0.0,0.0
1582107265955,-0.9652751,-0.1497238,9.620123,-14.625,-8.875,-42.3125,118.32,0.82,-5.6299996,1252.0,1527.0,5943.0,5.0,52.0,0.0,2.7925268E-4,-8.726646E-4,0.0032986724,-0.9637,-0.1398,9.7581,0.0222,0.0025,-0.1476,0.03857,0.031365,-0.857374,0.0,0.0,0.0,-37.125,36.4375,-40.5,0.001847,0.050026,-0.184861,0.0020769418,-0.0049218284,-0.0020594886,0.0,0.0,0.0,182935.0,0.0,0.0,0.038439,0.032236,-0.854025,0.0,0.0,0.0,0.0,2.0,0.0,0.0,0.0,0.0
1582107266006,-0.96462387,-0.15409082,9.622718,-14.375,-8.5625,-42.375,118.31,0.81,-5.6299996,1252.0,1527.0,5943.0,5.0,52.0,0.0,-0.0035255651,-9.773844E-4,0.0023038345,-0.96349996,-0.1396,9.7581,0.0025,0.0121,-0.1378,0.038565,0.031353,-0.857332,0.0,0.0,0.0,-36.875,36.75,-40.5625,0.001851,0.050016,-0.184797,-0.0017104227,-0.005026548,-0.0030543262,0.0,0.0,0.0,182935.0,0.0,0.0,0.03837,0.032416,-0.848915,0.0,0.0,0.0,0.0,2.0,0.0,0.0,0.0,0.0
1582107266055,-0.96780336,-0.15283626,9.633004,-14.75,-9.0,-42.875,118.299995,0.81,-5.6299996,1235.0,1506.0,5858.0,5.0,52.0,0.0,-4.886922E-4,-0.0015184365,0.0026703537,-0.96339995,-0.13949999,9.7582,0.0023999999,0.0022,-0.1476,0.038562,0.031351,-0.857288,0.0,0.0,0.0,-37.25,36.3125,-41.0625,0.001855,0.050018,-0.18477,0.0012915436,-0.0055676005,-0.002687807,0.0,0.0,0.0,182935.0,0.0,0.0,0.038697,0.032655,-0.849605,0.0,0.0,0.0,0.0,2.0,0.0,0.0,0.0,0.0
1582107266107,-0.9728599,-0.13931382,9.630101,-14.625,-9.4375,-42.9375,118.29,0.82,-5.6299996,1235.0,1506.0,5858.0,5.0,52.0,0.0,4.5378561E-4,5.235988E-5,0.002687807,-0.9633,-0.1396,9.7582,0.0121,-0.017199999,-0.1476,0.038551,0.031356,-0.85725,0.0,0.0,0.0,-37.125,35.9375,-41.125,0.001843,0.050019,-0.184723,0.0022514747,-0.003996804,-0.002687807,0.0,0.0,0.0,182935.0,0.0,0.0,0.038692,0.032357,-0.854262,0.0,0.0,0.0,0.0,2.0,0.0,0.0,0.0,0.0
1582107266159,-0.9694889,-0.15648502,9.619941,-14.75,-9.1875,-42.4375,118.28,0.81,-5.6299996,1235.0,1506.0,5858.0,5.0,52.0,0.0,5.5850536E-4,-7.330383E-4,0.0021991148,-0.9629,-0.13939999,9.7582,-0.0078,0.011899999,-0.1281,0.038537,0.031341,-0.857196,0.0,0.0,0.0,-37.25,36.125,-40.625,0.001855,0.05,-0.184646,0.0023561944,-0.0047996556,-0.003159046,0.0,0.0,0.0,182935.0,0.0,0.0,0.039085,0.031915,-0.854143,0.0,0.0,0.0,0.0,2.0,0.0,0.0,0.0,0.0
1582107266209,-0.97168195,-0.16423267,9.628713,-14.8125,-8.875,-42.4375,118.27,0.81,-5.6299996,1218.0,1485.0,5775.0,5.0,52.0,0.0,1.9198621E-4,-9.250245E-4,0.003281219,-0.96269995,-0.13939999,9.7582,0.0016999999,-0.0075999997,-0.1281,0.038526,0.031336,-0.857164,0.0,0.0,0.0,-37.3125,36.4375,-40.625,0.001851,0.04999,-0.184585,0.0020071287,-0.0049741883,-0.0020769418,0.0,0.0,0.0,182935.0,0.0,0.0,0.038734,0.032798998,-0.851595,0.0,0.0,0.0,0.0,2.0,0.0,0.0,0.0,0.0
1582107266260,-0.97536904,-0.16192465,9.627181,-14.875,-9.0,-42.5,118.259995,0.81,-5.6299996,1218.0,1485.0,5775.0,5.0,52.0,0.0,5.235988E-5,-6.1086525E-4,0.0019547688,-0.9623,-0.13939999,9.7583,0.0111,-0.0075999997,-0.1379,0.038508,0.031327,-0.857129,0.0,0.0,0.0,-37.375,36.3125,-40.6875,0.001843,0.049971,-0.184525,0.001850049,-0.004660029,-0.003403392,0.0,0.0,0.0,182935.0,0.0,0.0,0.038667,0.032539,-0.850482,0.0,0.0,0.0,0.0,2.0,0.0,0.0,0.0,0.0
1582107266313,-0.9645377,-0.13637373,9.620773,-14.8125,-9.0,-42.6875,118.25,0.81,-5.6299996,1220.0,1488.0,5790.0,5.0,52.0,0.0,-5.9341197E-4,-0.0016580628,0.0016929694,-0.96239996,-0.1392,9.7583,0.0209,0.0018999999,-0.1478,0.03851,0.031324,-0.85707897,0.0,0.0,0.0,-37.3125,36.3125,-40.875,0.001851,0.049976,-0.184491,0.0012042772,-0.0057072267,-0.0036651914,0.0,0.0,0.0,182935.0,0.0,0.0,0.038604,0.032456,-0.849855,0.0,0.0,0.0,0.0,2.0,0.0,0.0,0.0,0.0
1582107266364,-0.9602473,-0.14891934,9.625888,-14.375,-9.25,-42.5,118.24,0.81,-5.62,1220.0,1488.0,5790.0,5.0,52.0,0.0,8.901179E-4,-0.0010821042,0.0024085543,-0.96159995,-0.1383,9.7584,0.0202,9.999999E-4,-0.138,0.038498,0.031269,-0.857041,0.0,0.0,0.0,-36.875,36.0625,-40.6875,0.001859,0.049949,-0.184421,0.0027052604,-0.005131268,-0.0029496064,0.0,0.0,0.0,182935.0,0.0,0.0,0.038244,0.03193,-0.852584,0.0,0.0,0.0,0.0,2.0,0.0,0.0,0.0,0.0
1582107266413,-0.96729577,-0.14647727,9.610249,-14.375,-9.375,-42.5,118.24,0.79999995,-5.62,1244.0,1517.0,5909.0,5.0,52.0,0.0,-5.7595863E-4,-8.901179E-4,0.0029321532,-0.96099997,-0.1378,9.7584,0.009699999,-0.019,-0.1381,0.038482,0.031232,-0.857017,0.0,0.0,0.0,-36.875,35.9375,-40.6875,0.001902,0.049895,-0.184361,0.0012217305,-0.004939282,-0.0024260078,0.0,0.0,0.0,182935.0,0.0,0.0,0.038812,0.031917,-0.855818,0.0,0.0,0.0,0.0,2.0,0.0,0.0,0.0,0.0
1582107266466,-0.9705136,-0.14940776,9.6336355,-14.3125,-8.875,-42.5,118.229996,0.81,-5.62,1244.0,1517.0,5909.0,5.0,52.0,0.0,-4.5378561E-4,-8.2030473E-4,0.0024085543,-0.9605,-0.13849999,9.7585,-4.9999997E-4,0.0011999999,-0.15779999,0.038441,0.03125,-0.856976,0.0,0.0,0.0,-36.8125,36.4375,-40.6875,0.001871,0.049876,-0.184295,0.0013439035,-0.0048694685,-0.0029496064,0.0,0.0,0.0,182935.0,0.0,0.0,0.038837,0.032199,-0.854451,0.0,0.0,0.0,0.0,2.0,0.0,0.0,0.0,0.0
1582107266517,-0.96570605,-0.1425412,9.63219,-14.125,-8.4375,-42.75,118.21999,0.81,-5.6099997,1244.0,1517.0,5909.0,5.0,52.0,0.0,-9.250245E-4,-9.5993106E-4,8.726646E-5,-0.96019995,-0.139,9.7585,-0.0106,0.0016999999,-0.148,0.038413,0.031266,-0.856964,0.0,0.0,0.0,-36.625,36.875,-40.9375,0.001831,0.049866,-0.184254,7.6794485E-4,-0.006038839,-0.0027052604,0.0,0.0,0.0,182935.0,0.0,0.0,0.038515,0.032531,-0.84866,0.0,0.0,0.0,0.0,2.0,0.0,0.0,0.0,0.0
1582107266567,-0.97787815,-0.1377432,9.609426,-14.3125,-8.5625,-42.5625,118.229996,0.81,-5.6099997,1250.0,1524.0,5941.0,5.0,52.0,0.0,-0.0015358897,-5.235988E-5,3.6651915E-4,-0.9601,-0.1392,9.7585,-9.0E-4,-0.0078,-0.148,0.038403,0.031274,-0.856968,0.0,0.0,0.0,-36.8125,36.75,-40.75,0.001822,0.049865,-0.184257,1.5707963E-4,-0.005131268,-0.0024260078,0.0,0.0,0.0,182935.0,0.0,0.0,0.038066,0.032863,-0.847389,0.0,0.0,0.0,0.0,2.0,0.0,0.0,0.0,0.0
1582107266618,-0.96198064,-0.14107594,9.621434,-14.1875,-8.5625,-42.25,118.229996,0.81,-5.62,1250.0,1524.0,5941.0,5.0,52.0,0.0,-1.7453292E-4,-3.3161257E-4,3.1415926E-4,-0.9604,-0.1393,9.7585,0.009099999,-0.0077,-0.15779999,0.038413,0.031285,-0.856972,0.0,0.0,0.0,-36.6875,36.75,-40.4375,0.00181,0.049884,-0.184296,0.0015184365,-0.0053930674,-0.0024958209,0.0,0.0,0.0,182935.0,0.0,0.0,0.038234,0.032847,-0.848501,0.0,0.0,0.0,0.0,2.0,0.0,0.0,0.0,0.0
1582107266671,-0.9612432,-0.14616123,9.624652,-14.75,-8.8125,-42.375,118.21999,0.81,-5.62,1256.0,1531.0,5963.0,5.0,52.0,0.0,-1.3962634E-4,-5.7595863E-4,4.363323E-4,-0.96089995,-0.13939999,9.7584,0.009699999,0.0021,-0.1283,0.038434,0.031305,-0.856958,0.0,0.0,0.0,-37.25,36.5,-40.5625,0.00181,0.049925,-0.184324,0.001553343,-0.0056374134,-0.0023561944,0.0,0.0,0.0,182935.0,0.0,0.0,0.03855,0.032716,-0.849307,0.0,0.0,0.0,0.0,2.0,0.0,0.0,0.0,0.0
1582107266721,-0.97566587,-0.15297034,9.627372,-14.875,-8.625,-42.6875,118.21999,0.81,-5.62,1256.0,1531.0,5963.0,5.0,52.0,0.0,-2.0943952E-4,-1.0471976E-4,0.0,-0.9615,-0.1396,9.7583,4.9999997E-4,0.0023,-0.138,0.038454,0.031329,-0.856959,0.0,0.0,0.0,-37.375,36.6875,-40.875,0.00181,0.049961,-0.184364,0.0014835298,-0.0051661744,-0.0027925267,0.0,0.0,0.0,182935.0,0.0,0.0,0.038329,0.032997,-0.846609,0.0,0.0,0.0,0.0,2.0,0.0,0.0,0.0,0.0
1582107266770,-0.9525475,-0.15980819,9.610478,-14.8125,-8.5625,-42.3125,118.21999,0.81,-5.62,1256.0,1531.0,5963.0,5.0,52.0,0.0,-7.6794485E-4,1.2217305E-4,-1.0471976E-4,-0.9619,-0.13949999,9.7583,8.0E-4,0.0022,-0.1576,0.038472,0.031333,-0.856959,0.0,0.0,0.0,-37.3125,36.75,-40.5,0.001822,0.04998,-0.184393,9.250245E-4,-0.0049218284,-0.0029146997,0.0,0.0,0.0,182935.0,0.0,0.0,0.038118,0.032688,-0.846046,0.0,0.0,0.0,0.0,2.0,0.0,0.0,0.0,0.0
1582107266822,-0.9700539,-0.15594871,9.6217985,-14.875,-8.5,-42.1875,118.21999,0.82,-5.6299996,1263.0,1540.0,6003.0,5.0,52.0,0.0,6.981317E-5,6.981317E-5,-1.5707963E-4,-0.96209997,-0.1397,9.7583,0.0011,0.0122,-0.138,0.038478,0.031349,-0.856958,0.0,0.0,0.0,-37.375,36.8125,-40.375,0.001806,0.049998,-0.184421,0.0017802358,-0.0049916417,-0.0029670596,0.0,0.0,0.0,182935.0,0.0,0.0,0.038322,0.032998,-0.84552,0.0,0.0,0.0,0.0,2.0,0.0,0.0,0.0,0.0
1582107266873,-0.9752542,-0.14614208,9.626492,-14.8125,-8.5625,-42.75,118.21999,0.82,-5.6299996,1263.0,1540.0,6003.0,5.0,52.0,0.0,-2.9670598E-4,5.7595863E-4,-9.773844E-4,-0.96269995,-0.1398,9.7582,0.011399999,0.0025,-0.1477,0.038501,0.031369,-0.856949,0.0,0.0,0.0,-37.3125,36.75,-40.9375,0.00181,0.050024,-0.184432,0.0013962634,-0.004468043,-0.0038048178,0.0,0.0,0.0,182935.0,0.0,0.0,0.038199,0.032782,-0.84672,0.0,0.0,0.0,0.0,2.0,0.0,0.0,0.0,0.0
1582107266925,-0.9758575,-0.15556565,9.643509,-14.75,-8.6875,-42.625,118.21999,0.82,-5.6299996,1269.0,1548.0,6029.0,5.0,52.0,0.0,7.853982E-4,2.9670598E-4,-1.2217305E-4,-0.96309996,-0.1397,9.7582,0.0117999995,-0.0072999997,-0.1281,0.038519,0.031377,-0.856943,0.0,0.0,0.0,-37.25,36.625,-40.8125,0.001818,0.050048,-0.184464,0.0024958209,-0.0047472958,-0.0029321532,0.0,0.0,0.0,182935.0,0.0,0.0,0.038311,0.032919,-0.846081,0.0,0.0,0.0,0.0,2.0,0.0,0.0,0.0,0.0
1582107266975,-0.9604675,-0.15761508,9.634775,-14.75,-8.625,-42.1875,118.21999,0.82,-5.6299996,1269.0,1548.0,6029.0,5.0,52.0,0.0,-4.886922E-4,6.6322513E-4,3.8397242E-4,-0.9637,-0.1396,9.7581,-0.0071,0.0023,-0.1378,0.038546998,0.031388,-0.856928,0.0,0.0,0.0,-37.25,36.6875,-40.375,0.001831,0.050076,-0.184482,0.0011868239,-0.0043982295,-0.0024260078,0.0,0.0,0.0,182935.0,0.0,0.0,0.038341,0.032839,-0.844864,0.0,0.0,0.0,0.0,2.0,0.0,0.0,0.0,0.0
1582107267026,-0.95727843,-0.1430296,9.651401,-15.0,-8.5625,-41.9375,118.21999,0.81,-5.64,1266.0,1544.0,6015.0,5.0,52.0,0.0,-7.853982E-4,-1.7453292E-5,4.5378561E-4,-0.96419996,-0.13949999,9.7581,0.0030999999,0.0022,-0.1378,0.038574,0.031396,-0.856913,0.0,0.0,0.0,-37.5,36.75,-40.125,0.001843,0.050096,-0.184491,9.0757123E-4,-0.0050963615,-0.0023561944,0.0,0.0,0.0,182935.0,0.0,0.0,0.038242,0.03279,-0.84473,0.0,0.0,0.0,0.0,2.0,0.0,0.0,0.0,0.0
1582107267077,-0.96371406,-0.1436138,9.632611,-14.625,-8.625,-42.3125,118.21,0.81,-5.64,1266.0,1544.0,6015.0,5.0,52.0,0.0,4.1887903E-4,5.9341197E-4,0.00143117,-0.96449995,-0.1393,9.7581,0.0033999998,0.0019999999,-0.13769999,0.038589,0.031397,-0.856905,0.0,0.0,0.0,-37.125,36.6875,-40.5,0.001855,0.050109,-0.184498,0.0021293017,-0.0044505894,-0.0013788101,0.0,0.0,0.0,182935.0,0.0,0.0,0.03826,0.03262,-0.846372,0.0,0.0,0.0,0.0,2.0,0.0,0.0,0.0,0.0
1582107267126,-0.9587437,-0.1429913,9.643442,-14.5,-8.4375,-42.0625,118.21,0.81,-5.64,1266.0,1544.0,6015.0,5.0,52.0,0.0,-6.806784E-4,2.443461E-4,-1.3962634E-4,-0.96489996,-0.1393,9.757999,0.0037999998,0.0019999999,-0.1475,0.038606,0.031409,-0.85689497,0.0,0.0,0.0,-37.0,36.875,-40.25,0.001855,0.05013,-0.184495,0.001012291,-0.0048171086,-0.0029496064,0.0,0.0,0.0,182935.0,0.0,0.0,0.038298,0.03265,-0.848447,0.0,0.0,0.0,0.0,2.0,0.0,0.0,0.0,0.0
1582107267178,-0.96610826,-0.14421713,9.638318,-14.5,-8.5,-42.25,118.21,0.81,-5.64,1254.0,1529.0,5958.0,5.0,52.0,0.0,-2.7925268E-4,-6.806784E-4,3.6651915E-4,-0.9654,-0.1392,9.757999,0.0042999997,0.0018999999,-0.1278,0.038632,0.031417,-0.856872,0.0,0.0,0.0,-37.0,36.8125,-40.4375,0.001867,0.050152,-0.184498,0.0014137167,-0.0057595866,-0.0024260078,0.0,0.0,0.0,182935.0,0.0,0.0,0.038426,0.032822,-0.84439397,0.0,0.0,0.0,0.0,2.0,0.0,0.0,0.0,0.0
1582107267230,-0.96172214,-0.1360194,9.641536,-14.4375,-8.5,-42.125,118.21,0.81,-5.65,1254.0,1529.0,5958.0,5.0,52.0,0.0,-6.981317E-4,2.0943952E-4,4.363323E-4,-0.96559995,-0.13949999,9.757899,-0.0050999997,0.0022,-0.1278,0.038632,0.031439,-0.85686797,0.0,0.0,0.0,-36.9375,36.8125,-40.3125,0.001847,0.050164,-0.184504,9.948377E-4,-0.0048520155,-0.0023561944,0.0,0.0,0.0,182935.0,0.0,0.0,0.038297,0.032567,-0.848081,0.0,0.0,0.0,0.0,2.0,0.0,0.0,0.0,0.0
1582107267279,-0.9719406,-0.14387238,9.6288185,-14.625,-8.625,-42.3125,118.21,0.82,-5.65,1227.0,1497.0,5829.0,5.0,52.0,0.0,1.9198621E-4,-3.8397242E-4,-1.3962634E-4,-0.9657,-0.1397,9.757899,0.0046,0.0023999999,-0.13759999,0.038628,0.031449,-0.856864,0.0,0.0,0.0,-37.125,36.6875,-40.5,0.001835,0.050166998,-0.184493,0.0019024089,-0.0054628807,-0.0029496064,0.0,0.0,0.0,182935.0,0.0,0.0,0.038203,0.03268,-0.848751,0.0,0.0,0.0,0.0,2.0,0.0,0.0,0.0,0.0
1582107267331,-0.9733292,-0.13809755,9.638232,-14.5625,-8.9375,-42.6875,118.2,0.82,-5.65,1227.0,1497.0,5829.0,5.0,52.0,0.0,0.0,0.0,-0.0011693706,-0.9659,-0.1399,9.757899,0.014699999,0.0026,-0.1278,0.038635,0.031465,-0.85686,0.0,0.0,0.0,-37.0625,36.375,-40.875,0.001831,0.050181,-0.184496,0.0016929694,-0.0050614546,-0.003979351,0.0,0.0,0.0,182935.0,0.0,0.0,0.038326,0.032444,-0.849419,0.0,0.0,0.0,0.0,2.0,0.0,0.0,0.0,0.0
1582107267387,-0.96349376,-0.161283,9.635225,-14.125,-8.9375,-42.8125,118.2,0.82,-5.65,1225.0,1494.0,5817.0,5.0,52.0,0.0,2.6179937E-4,3.3161257E-4,3.4906585E-5,-0.96629995,-0.1401,9.757899,0.0150999995,0.0028,-0.1375,0.038647998,0.031484,-0.85685897,0.0,0.0,0.0,-36.625,36.375,-41.0,0.001831,0.050207,-0.184522,0.001972222,-0.0047298423,-0.0027750735,0.0,0.0,0.0,182935.0,0.0,0.0,0.038908,0.0326,-0.853298,0.0,0.0,0.0,0.0,2.0,0.0,0.0,0.0,0.0
1582107267438,-0.9729557,-0.15147635,9.628023,-14.25,-8.4375,-42.5,118.2,0.82,-5.65,1225.0,1494.0,5817.0,5.0,52.0,0.0,-5.410521E-4,-8.901179E-4,1.0471976E-4,-0.96709996,-0.1401,9.7578,0.006,0.0028,-0.1375,0.038678,0.031505,-0.856844,0.0,0.0,0.0,-36.75,36.875,-40.6875,0.001839,0.050243,-0.184538,0.0011519173,-0.005969026,-0.0027052604,0.0,0.0,0.0,182935.0,0.0,0.0,0.038641,0.03269,-0.84896,0.0,0.0,0.0,0.0,2.0,0.0,0.0,0.0,0.0
1582107267490,-0.9630629,-0.14461936,9.642092,-14.375,-9.1875,-42.625,118.2,0.82,-5.65,1225.0,1494.0,5817.0,5.0,52.0,0.0,-8.2030473E-4,0.0012915436,2.0943952E-4,-0.96669996,-0.1399,9.7578,0.0155,-0.0071,-0.14729999,0.03867,0.031486,-0.856852,0.0,0.0,0.0,-36.875,36.125,-40.8125,0.001843,0.050224,-0.184549,4.5378561E-4,-0.0052185343,-0.0036128315,0.0,0.0,0.0,182935.0,0.0,0.0,0.038339,0.032506,-0.851057,0.0,0.0,0.0,0.0,2.0,0.0,0.0,0.0,0.0
1582107267539,-0.96542835,-0.14220601,9.613065,-14.6875,-9.25,-42.375,118.2,0.82,-5.65,1228.0,1498.0,5835.0,5.0,52.0,0.0,6.283185E-4,5.061455E-4,4.0142573E-4,-0.9669,-0.1406,9.7578,0.0254,0.0033,-0.1375,0.038659,0.031518,-0.856846,0.0,0.0,0.0,-37.1875,36.0625,-40.5625,0.001818,0.050237,-0.184537,0.0023387412,-0.004555309,-0.0024085543,0.0,0.0,0.0,182935.0,0.0,0.0,0.038602,0.032103,-0.856141,0.0,0.0,0.0,0.0,2.0,0.0,0.0,0.0,0.0
1582107267593,-0.9688568,-0.15032713,9.622949,-14.8125,-8.875,-42.3125,118.2,0.82,-5.65,1228.0,1498.0,5835.0,5.0,52.0,0.0,-5.410521E-4,-4.1887903E-4,-1.9198621E-4,-0.96699995,-0.1407,9.7578,0.0157,-0.0063,-0.1375,0.038661,0.031527,-0.856843,0.0,0.0,0.0,-37.3125,36.4375,-40.5,0.001818,0.050243,-0.184539,0.0011519173,-0.005497787,-0.0030194195,0.0,0.0,0.0,182935.0,0.0,0.0,0.038533,0.032751,-0.850958,0.0,0.0,0.0,0.0,2.0,0.0,0.0,0.0,0.0
1582107267643,-0.9642216,-0.14722426,9.632142,-14.5625,-8.6875,-42.5,118.2,0.82,-5.65,1233.0,1503.0,5856.0,5.0,52.0,0.0,2.0943952E-4,-5.7595863E-4,-1.2217305E-4,-0.96699995,-0.141,9.7578,0.0157,-0.006,-0.14729999,0.038646,0.03154,-0.856857,0.0,0.0,0.0,-37.0625,36.625,-40.6875,0.001789,0.050245,-0.184541,0.0019198621,-0.005654867,-0.0029496064,0.0,0.0,0.0,182935.0,0.0,0.0,0.037961,0.032576,-0.85047,0.0,0.0,0.0,0.0,2.0,0.0,0.0,0.0,0.0
1582107267693,-0.9651314,-0.14627615,9.617355,-14.5625,-8.9375,-42.6875,118.21,0.82,-5.65,1233.0,1503.0,5856.0,5.0,52.0,0.0,1.0471976E-4,1.7453292E-5,-0.0011693706,-0.96699995,-0.14109999,9.7578,0.0157,0.0037999998,-0.14729999,0.038649,0.031543,-0.85686,0.0,0.0,0.0,-37.0625,36.375,-40.875,0.001785,0.050247,-0.184538,0.0017976891,-0.0050440016,-0.003996804,0.0,0.0,0.0,182935.0,0.0,0.0,0.038512,0.032355,-0.85239,0.0,0.0,0.0,0.0,2.0,0.0,0.0,0.0,0.0
1582107267745,-0.9700443,-0.15466544,9.624116,-14.5,-8.9375,-42.625,118.2,0.82,-5.65,1234.0,1505.0,5865.0,5.0,52.0,0.0,3.8397242E-4,-8.0285146E-4,8.726646E-5,-0.96709996,-0.1407,9.7578,0.006,0.0132,-0.1375,0.038664,0.03153,-0.856849,0.0,0.0,0.0,-37.0,36.375,-40.8125,0.001806,0.050243,-0.184536,0.002094395,-0.0058817593,-0.0027052604,0.0,0.0,0.0,182935.0,0.0,0.0,0.038676,0.032217998,-0.852378,0.0,0.0,0.0,0.0,2.0,0.0,0.0,0.0,0.0
1582107267795,-0.9674299,-0.16117766,9.62086,-14.1875,-8.6875,-42.5625,118.2,0.82,-5.66,1234.0,1505.0,5865.0,5.0,52.0,0.0,-5.235988E-5,6.981317E-5,-8.3775807E-4,-0.96739995,-0.1405,9.7578,0.0063,-0.0064999997,-0.1472,0.038684,0.03153,-0.856847,0.0,0.0,0.0,-36.6875,36.625,-40.75,0.001822,0.050252,-0.184552,0.0016406095,-0.0049741883,-0.0036477381,0.0,0.0,0.0,182935.0,0.0,0.0,0.038631,0.03269,-0.851071,0.0,0.0,0.0,0.0,2.0,0.0,0.0,0.0,0.0
1582107267846,-0.96155924,-0.1439011,9.6146345,-14.5,-8.8125,-42.8125,118.2,0.82,-5.66,1234.0,1505.0,5865.0,5.0,52.0,0.0,-0.003159046,-6.1086525E-4,8.3775807E-4,-0.96779996,-0.1407,9.7577,0.0166,-0.0063,-0.1472,0.038696,0.031551998,-0.856844,0.0,0.0,0.0,-37.0,36.5,-41.0,0.00181,0.05029,-0.184589,-0.0014486233,-0.0056723203,-0.0019547688,0.0,0.0,0.0,182935.0,0.0,0.0,0.038716,0.032851,-0.851068,0.0,0.0,0.0,0.0,2.0,0.0,0.0,0.0,0.0
1582107267898,-0.9680524,-0.14672625,9.62223,-14.6875,-8.875,-42.375,118.2,0.82,-5.66,1239.0,1510.0,5887.0,5.0,52.0,0.0,0.0012217305,4.886922E-4,2.7925268E-4,-0.9677,-0.141,9.7577,0.0165,0.013499999,-0.1472,0.038685,0.031561,-0.85684997,0.0,0.0,0.0,-37.1875,36.4375,-40.5625,0.001789,0.050283,-0.184577,0.0029321532,-0.004555309,-0.002513274,0.0,0.0,0.0,182935.0,0.0,0.0,0.038094,0.032697,-0.849064,0.0,0.0,0.0,0.0,2.0,0.0,0.0,0.0,0.0
1582107267950,-0.9514462,-0.15772043,9.62109,-14.4375,-9.1875,-42.5625,118.2,0.82,-5.66,1239.0,1510.0,5887.0,5.0,52.0,0.0,0.0015358897,0.0031764992,7.330383E-4,-0.968,-0.1409,9.7577,0.0168,0.0036,-0.1472,0.0387,0.031561,-0.856842,0.0,0.0,0.0,-36.9375,36.125,-40.75,0.001802,0.050296,-0.184578,0.0032463125,-0.0018675023,-0.0020594886,0.0,0.0,0.0,182935.0,0.0,0.0,0.038618,0.032357,-0.851905,0.0,0.0,0.0,0.0,2.0,0.0,0.0,0.0,0.0
1582107268001,-0.9706477,-0.1550964,9.627191,-14.4375,-8.75,-42.1875,118.2,0.82,-5.66,1249.0,1523.0,5943.0,5.0,52.0,0.0,8.3775807E-4,8.0285146E-4,3.4906585E-5,-0.9687,-0.14119999,9.7576,0.0075999997,0.0039,-0.1471,0.038722,0.031593,-0.85684097,0.0,0.0,0.0,-36.9375,36.5625,-40.375,0.001789,0.050332,-0.184569,0.0025307273,-0.0042586033,-0.0027750735,0.0,0.0,0.0,182935.0,0.0,0.0,0.03858,0.032402,-0.853321,0.0,0.0,0.0,0.0,2.0,0.0,0.0,0.0,0.0
1582107268053,-0.97097325,-0.15086344,9.62245,-14.5625,-8.5,-41.9375,118.2,0.82,-5.67,1249.0,1523.0,5943.0,5.0,52.0,0.0,9.773844E-4,0.0,-5.5850536E-4,-0.969,-0.14109999,9.7576,0.0079,0.0037999998,-0.1275,0.038738,0.031598,-0.85684,0.0,0.0,0.0,-37.0625,36.8125,-40.125,0.001802,0.050341,-0.184589,0.002687807,-0.0050614546,-0.0033859387,0.0,0.0,0.0,182935.0,0.0,0.0,0.038428,0.032641,-0.848222,0.0,0.0,0.0,0.0,2.0,0.0,0.0,0.0,0.0
1582107268101,-0.9726301,-0.14519396,9.625945,-14.6875,-8.6875,-42.125,118.2,0.82,-5.67,1252.0,1527.0,5956.0,5.0,52.0,0.0,0.0051487214,7.853982E-4,8.901179E-4,-0.969,-0.14029999,9.7576,0.0178,-0.0067,-0.1471,0.03876,0.031567,-0.856834,0.0,0.0,0.0,-37.1875,36.625,-40.3125,0.001839,0.050335,-0.184579,0.0068591437,-0.004276057,-0.0019024089,0.0,0.0,0.0,182935.0,0.0,0.0,0.038326,0.032632,-0.848785,0.0,0.0,0.0,0.0,2.0,0.0,0.0,0.0,0.0
1582107268153,-0.974555,-0.1475786,9.628502,-14.9375,-9.0625,-42.1875,118.2,0.82,-5.67,1252.0,1527.0,5956.0,5.0,52.0,0.0,-3.8397242E-4,5.7595863E-4,0.0,-0.969,-0.14,9.7576,0.007999999,0.0028,-0.1373,0.038766,0.031558,-0.856827,0.0,0.0,0.0,-37.4375,36.25,-40.375,0.001855,0.050333,-0.184582,0.0013089969,-0.0044854963,-0.0028099802,0.0,0.0,0.0,182935.0,0.0,0.0,0.038676,0.032513,-0.850746,0.0,0.0,0.0,0.0,2.0,0.0,0.0,0.0,0.0
1582107268205,-0.9636949,-0.15198392,9.621416,-14.75,-9.125,-42.3125,118.2,0.82,-5.67,1252.0,1527.0,5956.0,5.0,52.0,0.0,-4.0142573E-4,-3.1415926E-4,-1.7453292E-5,-0.9693,-0.14039999,9.7576,0.0082,0.0030999999,-0.147,0.038767,0.031577,-0.856823,0.0,0.0,0.0,-37.25,36.1875,-40.5,0.001843,0.05035,-0.184571,0.0012915436,-0.0053930674,-0.0028448866,0.0,0.0,0.0,182935.0,0.0,0.0,0.038489,0.032305,-0.852637,0.0,0.0,0.0,0.0,2.0,0.0,0.0,0.0,0.0
1582107268254,-0.959845,-0.13488933,9.620956,-14.5,-8.875,-42.1875,118.2,0.82,-5.67,1259.0,1535.0,5986.0,5.0,52.0,0.0,-1.5707963E-4,3.8397242E-4,3.3161257E-4,-0.9695,-0.1405,9.7575,0.0084,0.0032,-0.1372,0.038771998,0.031587,-0.856825,0.0,0.0,0.0,-37.0,36.4375,-40.375,0.001839,0.050362,-0.184588,0.0015358897,-0.0046774824,-0.0024783674,0.0,0.0,0.0,182935.0,0.0,0.0,0.038668,0.032758,-0.851639,0.0,0.0,0.0,0.0,2.0,0.0,0.0,0.0,0.0
1582107268306,-0.9678608,-0.1552975,9.6307335,-14.625,-8.875,-42.375,118.2,0.82,-5.67,1259.0,1535.0,5986.0,5.0,52.0,0.0,6.1086525E-4,1.3962634E-4,3.3161257E-4,-0.9697,-0.1405,9.7575,0.0087,0.0032,-0.147,0.038785,0.031592,-0.856823,0.0,0.0,0.0,-37.125,36.4375,-40.5625,0.001843,0.050375,-0.184593,0.002321288,-0.0049218284,-0.0024783674,0.0,0.0,0.0,182935.0,0.0,0.0,0.03864,0.032579,-0.850997,0.0,0.0,0.0,0.0,2.0,0.0,0.0,0.0,0.0
1582107268357,-0.9692016,-0.15101667,9.614176,-14.625,-8.375,-42.625,118.2,0.82,-5.67,1264.0,1541.0,6017.0,5.0,52.0,0.0,-3.4906585E-5,3.8397242E-4,0.0011693706,-0.9697,-0.14019999,9.7575,0.0185,0.0029,-0.147,0.038792,0.031581,-0.856812,0.0,0.0,0.0,-37.125,36.9375,-40.8125,0.001851,0.05037,-0.184585,0.0016580628,-0.0046774824,-0.0016231562,0.0,0.0,0.0,182935.0,0.0,0.0,0.038398,0.03248,-0.847404,0.0,0.0,0.0,0.0,2.0,0.0,0.0,0.0,0.0
1582107268409,-0.9682726,-0.15357366,9.631586,-14.25,-8.3125,-42.625,118.2,0.82,-5.67,1264.0,1541.0,6017.0,5.0,52.0,0.0,-8.2030473E-4,1.2217305E-4,8.726646E-5,-0.96999997,-0.14,9.7575,0.009,-0.0069999998,-0.147,0.03881,0.03158,-0.856808,0.0,0.0,0.0,-36.75,37.0,-40.8125,0.001871,0.050382,-0.184592,8.726646E-4,-0.004939282,-0.0027052604,0.0,0.0,0.0,182935.0,0.0,0.0,0.038373,0.032901,-0.845614,0.0,0.0,0.0,0.0,2.0,0.0,0.0,0.0,0.0
1582107268459,-0.9728312,-0.14971422,9.636212,-14.125,-8.5,-42.75,118.2,0.82,-5.67,1268.0,1546.0,6029.0,5.0,52.0,0.0,3.8397242E-4,8.726646E-5,-0.0011170107,-0.96999997,-0.14,9.7575,0.0187,-0.0069999998,-0.1372,0.038808,0.031581,-0.856814,0.0,0.0,0.0,-36.625,36.8125,-40.9375,0.001863,0.050379,-0.184595,0.002094395,-0.0049741883,-0.003926991,0.0,0.0,0.0,182935.0,0.0,0.0,0.038202,0.032777,-0.84678197,0.0,0.0,0.0,0.0,2.0,0.0,0.0,0.0,0.0
1582107268510,-0.9691441,-0.15546031,9.633415,-14.625,-8.75,-42.5625,118.2,0.82,-5.67,1268.0,1546.0,6029.0,5.0,52.0,0.0,2.2689281E-4,4.363323E-4,1.7453292E-4,-0.96999997,-0.1397,9.7575,0.0187,-0.0072999997,-0.1372,0.038817,0.031566,-0.856818,0.0,0.0,0.0,-37.125,36.5625,-40.75,0.001879,0.050374,-0.18459,0.0019373155,-0.0046251225,-0.002635447,0.0,0.0,0.0,182935.0,0.0,0.0,0.03843,0.03263,-0.849346,0.0,0.0,0.0,0.0,2.0,0.0,0.0,0.0,0.0
1582107268562,-0.9512642,-0.15214673,9.641316,-14.1875,-8.375,-42.8125,118.2,0.81,-5.67,1268.0,1546.0,6029.0,5.0,52.0,0.0,-1.5707963E-4,3.1415926E-4,-2.0943952E-4,-0.9704,-0.13949999,9.7575,-4.0E-4,0.0023,-0.1273,0.038837,0.031569,-0.85681,0.0,0.0,0.0,-36.6875,36.9375,-41.0,0.001898,0.05039,-0.184599,0.0015184365,-0.0047472958,-0.0030194195,0.0,0.0,0.0,182935.0,0.0,0.0,0.038551,0.032757,-0.848842,0.0,0.0,0.0,0.0,2.0,0.0,0.0,0.0,0.0
1582107268609,-0.9798031,-0.1379539,9.634622,-14.125,-8.5,-42.75,118.2,0.82,-5.67,1272.0,1550.0,6050.0,5.0,52.0,0.0,4.5378561E-4,6.981317E-5,-5.061455E-4,-0.97029996,-0.14019999,9.7575,0.019,-0.0166,-0.1273,0.038819,0.031592,-0.856837,0.0,0.0,0.0,-36.625,36.8125,-40.9375,0.001867,0.050389,-0.184606,0.0021642083,-0.0049916417,-0.0033161256,0.0,0.0,0.0,182935.0,0.0,0.0,0.037982,0.032899998,-0.848577,0.0,0.0,0.0,0.0,2.0,0.0,0.0,0.0,0.0
1582107268661,-0.97416234,-0.15276922,9.643921,-14.6875,-8.9375,-42.6875,118.2,0.82,-5.67,1272.0,1550.0,6050.0,5.0,52.0,0.0,3.4906584E-4,3.3161257E-4,8.726646E-5,-0.97029996,-0.1399,9.7575,0.0191,0.0222,-0.1273,0.038827,0.031581,-0.856824,0.0,0.0,0.0,-37.1875,36.375,-40.875,0.001875,0.050387,-0.184606,0.0020594886,-0.0047298423,-0.0027052604,0.0,0.0,0.0,182935.0,0.0,0.0,0.038385,0.03229,-0.850024,0.0,0.0,0.0,0.0,2.0,0.0,0.0,0.0,0.0
1582107268713,-0.96120495,-0.15864938,9.633004,-14.5625,-8.8125,-42.5,118.2,0.82,-5.67,1282.0,1563.0,6096.0,5.0,52.0,0.0,-3.8397242E-4,7.330383E-4,5.235988E-5,-0.9705,-0.14,9.7574,0.019299999,-0.0069999998,-0.1273,0.038833,0.031591,-0.856835,0.0,0.0,0.0,-37.0625,36.5,-40.6875,0.001871,0.050399,-0.184601,0.0012915436,-0.0043284167,-0.0027401668,0.0,0.0,0.0,182935.0,0.0,0.0,0.038474,0.032524,-0.8515,0.0,0.0,0.0,0.0,2.0,0.0,0.0,0.0,0.0
1582107268765,-0.9688281,-0.1500111,9.6312895,-14.5625,-8.5,-41.9375,118.2,0.82,-5.67,1282.0,1563.0,6096.0,5.0,52.0,0.0,-1.2217305E-4,3.4906585E-5,-1.7453292E-4,-0.9705,-0.14,9.7575,0.019199999,0.0026999998,-0.1371,0.038833,0.031588,-0.856838,0.0,0.0,0.0,-37.0625,36.8125,-40.125,0.001871,0.050394,-0.184591,0.0015707964,-0.005026548,-0.0030019663,0.0,0.0,0.0,182935.0,0.0,0.0,0.038316,0.032314,-0.849525,0.0,0.0,0.0,0.0,2.0,0.0,0.0,0.0,0.0
1582107268814,-0.97048485,-0.14930241,9.6311455,-14.4375,-8.5625,-41.8125,118.2,0.82,-5.68,1288.0,1570.0,6125.0,5.0,52.0,0.0,0.005846853,0.0012391837,-1.2217305E-4,-0.97069997,-0.1401,9.7574,0.019399999,0.0126,-0.1371,0.038837,0.031595,-0.856837,0.0,0.0,0.0,-36.9375,36.75,-40.0,0.001871,0.050399,-0.184583,0.0018849556,-0.0054628807,-0.0020769418,0.0,0.0,0.0,182935.0,0.0,0.0,0.038304,0.032731,-0.84769,0.0,0.0,0.0,0.0,2.0,0.0,0.0,0.0,0.0
1582107268867,-0.9816514,-0.14839262,9.629585,-14.1875,-8.75,-42.25,118.2,0.81,-5.68,1288.0,1570.0,6125.0,5.0,52.0,0.0,-3.3161257E-4,7.6794485E-4,8.726646E-4,-0.9708,-0.13939999,9.7574,0.009699999,0.0021,-0.1371,0.03886,0.031572,-0.856843,0.0,0.0,0.0,-36.6875,36.5625,-40.4375,0.001902,0.050399,-0.18458,0.0013613568,-0.004276057,-0.0019373155,0.0,0.0,0.0,182935.0,0.0,0.0,0.03827,0.032511,-0.850554,0.0,0.0,0.0,0.0,2.0,0.0,0.0,0.0,0.0
1582107268917,-0.969441,-0.15606365,9.62109,-14.3125,-8.875,-42.1875,118.2,0.81,-5.68,1288.0,1570.0,6125.0,5.0,52.0,0.0,-4.1887903E-4,-3.3161257E-4,4.0142573E-4,-0.9709,-0.1393,9.7574,0.0098,0.0019999999,-0.1469,0.038868,0.031571,-0.856839,0.0,0.0,0.0,-36.8125,36.4375,-40.375,0.001906,0.050404,-0.184574,0.0012740904,-0.005410521,-0.002391101,0.0,0.0,0.0,182935.0,0.0,0.0,0.038549,0.032186,-0.853975,0.0,0.0,0.0,0.0,2.0,0.0,0.0,0.0,0.0
1582107268969,-0.97131807,-0.15165831,9.615708,-14.6875,-8.8125,-42.375,118.2,0.81,-5.68,1293.0,1577.0,6151.0,5.0,52.0,0.0,3.4906585E-5,-5.061455E-4,-3.6651915E-4,-0.9709,-0.1393,9.7574,0.0098,0.0021,-0.1469,0.038867,0.031571,-0.856839,0.0,0.0,0.0,-37.1875,36.5,-40.5625,0.001902,0.050402,-0.184562,0.0015358897,-0.0058293995,-0.0030019663,0.0,0.0,0.0,182935.0,0.0,0.0,0.038539,0.032389,-0.851123,0.0,0.0,0.0,0.0,2.0,0.0,0.0,0.0,0.0
1582107269019,-0.959529,-0.1405205,9.626348,-14.75,-8.75,-42.25,118.2,0.81,-5.68,1293.0,1577.0,6151.0,5.0,52.0,0.0,-5.5850536E-4,2.2689281E-4,-6.283185E-4,-0.97069997,-0.1393,9.7574,0.0195,0.0019999999,-0.1469,0.038862,0.031563,-0.856845,0.0,0.0,0.0,-37.25,36.5625,-40.4375,0.00191,0.050388,-0.184559,0.001134464,-0.004834562,-0.0034382986,0.0,0.0,0.0,182935.0,0.0,0.0,0.038261,0.032613,-0.847627,0.0,0.0,0.0,0.0,2.0,0.0,0.0,0.0,0.0
1582107269071,-0.96647215,-0.15107413,9.625955,-14.5,-8.5625,-42.0625,118.2,0.81,-5.68,1291.0,1574.0,6144.0,5.0,52.0,0.0,5.235988E-5,2.443461E-4,-3.1415926E-4,-0.9708,-0.13939999,9.7574,0.029299999,0.011899999,-0.1567,0.038862,0.031569,-0.856843,0.0,0.0,0.0,-37.0,36.75,-40.25,0.001902,0.05039,-0.184554,0.0017627826,-0.0048171086,-0.0031415927,0.0,0.0,0.0,182935.0,0.0,0.0,0.03815,0.032578,-0.847309,0.0,0.0,0.0,0.0,2.0,0.0,0.0,0.0,0.0
1582107269119,-0.956474,-0.15594871,9.615545,-14.4375,-8.625,-42.1875,118.21,0.81,-5.68,1291.0,1574.0,6144.0,5.0,52.0,0.0,-0.0012217305,2.2689281E-4,-4.712389E-4,-0.9708,-0.13949999,9.7574,0.009699999,0.0022,-0.1469,0.038858,0.031572,-0.856855,0.0,0.0,0.0,-36.9375,36.6875,-40.375,0.001898,0.050389,-0.184554,4.712389E-4,-0.0048171086,-0.003281219,0.0,0.0,0.0,182935.0,0.0,0.0,0.038322,0.032706,-0.849197,0.0,0.0,0.0,0.0,2.0,0.0,0.0,0.0,0.0
1582107269171,-0.97379845,-0.1637634,9.621483,-14.4375,-8.5,-42.5,118.21,0.81,-5.67,1291.0,1574.0,6144.0,5.0,52.0,0.0,3.4906585E-5,4.712389E-4,4.0142573E-4,-0.9704,-0.1393,9.7575,0.019199999,0.0117999995,-0.1568,0.038849,0.031556,-0.856865,0.0,0.0,0.0,-36.9375,36.8125,-40.6875,0.001898,0.050366,-0.184545,0.0017453292,-0.0045727626,-0.0024085543,0.0,0.0,0.0,182935.0,0.0,0.0,0.038190998,0.032395,-0.849208,0.0,0.0,0.0,0.0,2.0,0.0,0.0,0.0,0.0
1582107269223,-0.9722279,-0.15054742,9.61725,-14.6875,-8.3125,-42.5,118.21,0.82,-5.68,1291.0,1574.0,6141.0,5.0,52.0,0.0,6.981317E-4,1.5707963E-4,-3.4906584E-4,-0.97069997,-0.14,9.7574,0.0095999995,-0.0168,-0.1567,0.038843,0.03159,-0.85689,0.0,0.0,0.0,-37.1875,37.0,-40.6875,0.001863,0.050383,-0.184566,0.002391101,-0.0049043754,-0.003159046,0.0,0.0,0.0,182935.0,0.0,0.0,0.037811,0.033449,-0.843889,0.0,0.0,0.0,0.0,2.0,0.0,0.0,0.0,0.0
1582107269272,-0.97188306,-0.14038642,9.619165,-14.3125,-8.875,-42.6875,118.21,0.82,-5.68,1291.0,1574.0,6141.0,5.0,52.0,0.0,4.886922E-4,2.2689281E-4,5.9341197E-4,-0.97069997,-0.14,9.7574,0.0095999995,-0.0069999998,-0.1567,0.038845,0.031591,-0.856889,0.0,0.0,0.0,-36.8125,36.4375,-40.875,0.001851,0.05039,-0.184562,0.0021816615,-0.004834562,-0.0021991148,0.0,0.0,0.0,182935.0,0.0,0.0,0.038442,0.032723,-0.848684,0.0,0.0,0.0,0.0,2.0,0.0,0.0,0.0,0.0
1582107269324,-0.9684642,-0.14512692,9.61725,-14.5,-8.9375,-42.625,118.21999,0.82,-5.67,1292.0,1576.0,6147.0,5.0,52.0,0.0,8.726646E-5,5.7595863E-4,-3.4906584E-4,-0.97059995,-0.14,9.7574,0.029199999,0.0026999998,-0.1469,0.038834,0.031588,-0.856903,0.0,0.0,0.0,-37.0,36.375,-40.8125,0.001851,0.050375,-0.184553,0.0017976891,-0.0044854963,-0.003159046,0.0,0.0,0.0,182935.0,0.0,0.0,0.038461,0.032241,-0.854127,0.0,0.0,0.0,0.0,2.0,0.0,0.0,0.0,0.0
1582107269376,-0.9668553,-0.16063178,9.61543,-14.3125,-8.75,-42.625,118.21999,0.82,-5.67,1292.0,1576.0,6147.0,5.0,52.0,0.0,0.0016057029,6.457718E-4,0.001012291,-0.9704,-0.14029999,9.7575,0.0191,-0.0067,-0.1371,0.038822,0.031595,-0.856916,0.0,0.0,0.0,-36.8125,36.5625,-40.8125,0.001831,0.05037,-0.184563,0.0033161256,-0.004415683,-0.0017802358,0.0,0.0,0.0,182935.0,0.0,0.0,0.038424,0.03242,-0.852307,0.0,0.0,0.0,0.0,2.0,0.0,0.0,0.0,0.0
1582107269426,-0.97421986,-0.15239573,9.627611,-14.25,-8.5625,-42.5,118.21999,0.82,-5.68,1293.0,1577.0,6157.0,5.0,52.0,0.0,3.6651915E-4,1.0471976E-4,2.6179937E-4,-0.97059995,-0.14039999,9.7574,0.0095999995,-0.0066,-0.1469,0.038832,0.031605,-0.856922,0.0,0.0,0.0,-36.75,36.75,-40.6875,0.001826,0.050387,-0.184576,0.0020594886,-0.004939282,-0.0025307273,0.0,0.0,0.0,182935.0,0.0,0.0,0.038606,0.032845,-0.85053897,0.0,0.0,0.0,0.0,2.0,0.0,0.0,0.0,0.0
1582107269477,-0.9680524,-0.15146679,9.617882,-14.8125,-8.6875,-42.375,118.21999,0.82,-5.67,1293.0,1577.0,6157.0,5.0,52.0,0.0,-1.2217305E-4,4.886922E-4,-4.5378561E-4,-0.97029996,-0.1405,9.7575,0.0191,-0.0064999997,-0.1469,0.038819,0.031597,-0.856938,0.0,0.0,0.0,-37.3125,36.625,-40.5625,0.001826,0.050368,-0.18456,0.0015707964,-0.0045727626,-0.003281219,0.0,0.0,0.0,182935.0,0.0,0.0,0.037958,0.032893,-0.847598,0.0,0.0,0.0,0.0,2.0,0.0,0.0,0.0,0.0
1582107269529,-0.9532945,-0.14353718,9.621569,-14.5,-8.6875,-42.25,118.229996,0.82,-5.68,1293.0,1577.0,6157.0,5.0,52.0,0.0,-6.6322513E-4,-2.7925268E-4,-5.410521E-4,-0.97059995,-0.14039999,9.7574,0.019299999,0.0030999999,-0.1665,0.03883,0.031602,-0.856942,0.0,0.0,0.0,-37.0,36.625,-40.4375,0.001826,0.050382,-0.18459,0.0010297443,-0.005358161,-0.0033684855,0.0,0.0,0.0,182935.0,0.0,0.0,0.038347,0.032896,-0.846666,0.0,0.0,0.0,0.0,2.0,0.0,0.0,0.0,0.0
1582107269579,-0.95996,-0.15279795,9.613984,-14.625,-8.4375,-42.4375,118.21999,0.82,-5.67,1295.0,1578.0,6157.0,5.0,52.0,0.0,-1.7453292E-5,-1.7453292E-5,1.5707963E-4,-0.9705,-0.1405,9.7574,0.019299999,-0.0064999997,-0.1567,0.038825,0.031607,-0.856934,0.0,0.0,0.0,-37.125,36.875,-40.625,0.001818,0.05038,-0.184577,0.0016755161,-0.0050963615,-0.0026529005,0.0,0.0,0.0,182935.0,0.0,0.0,0.038361,0.032661,-0.847762,0.0,0.0,0.0,0.0,2.0,0.0,0.0,0.0,0.0
1582107269631,-0.97442096,-0.16248968,9.608697,-14.75,-8.375,-42.5625,118.229996,0.82,-5.67,1295.0,1578.0,6157.0,5.0,52.0,0.0,1.9198621E-4,0.0,2.7925268E-4,-0.9705,-0.1405,9.7574,0.0095,0.0131,-0.1665,0.038825,0.031606,-0.856943,0.0,0.0,0.0,-37.25,36.9375,-40.75,0.001822,0.050375998,-0.184563,0.0019024089,-0.0050440016,-0.0025307273,0.0,0.0,0.0,182935.0,0.0,0.0,0.038136,0.033015,-0.845458,0.0,0.0,0.0,0.0,2.0,0.0,0.0,0.0,0.0
1582107269683,-0.9651793,-0.1535641,9.623322,-14.625,-8.75,-42.5,118.229996,0.82,-5.68,1293.0,1577.0,6150.0,5.0,52.0,0.0,-7.330383E-4,-1.3962634E-4,1.7453292E-4,-0.97059995,-0.1407,9.7574,0.019399999,-0.0063,-0.1469,0.038828,0.031613998,-0.856945,0.0,0.0,0.0,-37.125,36.5625,-40.6875,0.001814,0.05039,-0.184575,9.5993106E-4,-0.0052185343,-0.0026179939,0.0,0.0,0.0,182935.0,0.0,0.0,0.038365,0.032851,-0.848167,0.0,0.0,0.0,0.0,2.0,0.0,0.0,0.0,0.0
1582107269733,-0.9625744,-0.14798082,9.616081,-14.625,-8.5,-42.8125,118.229996,0.82,-5.68,1293.0,1577.0,6150.0,5.0,52.0,0.0,-8.3775807E-4,-8.726646E-5,-3.3161257E-4,-0.97059995,-0.1407,9.7574,0.019399999,0.0033999998,-0.1469,0.038826,0.031613,-0.856941,0.0,0.0,0.0,-37.125,36.8125,-41.0,0.00181,0.050389,-0.18458,8.5521134E-4,-0.0051661744,-0.0031415927,0.0,0.0,0.0,182935.0,0.0,0.0,0.038343,0.032855,-0.84696,0.0,0.0,0.0,0.0,2.0,0.0,0.0,0.0,0.0
1582107269784,-0.96552414,-0.16080417,9.625869,-14.8125,-8.625,-42.6875,118.229996,0.82,-5.68,1295.0,1578.0,6156.0,5.0,52.0,0.0,6.806784E-4,-2.0943952E-4,0.0013439035,-0.9709,-0.141,9.7574,0.0099,-0.006,-0.1469,0.038832,0.031635,-0.85694,0.0,0.0,0.0,-37.3125,36.6875,-40.875,0.001802,0.050409,-0.18459,0.0023736479,-0.0052883476,-0.0014660766,0.0,0.0,0.0,182935.0,0.0,0.0,0.038278,0.033087,-0.845538,0.0,0.0,0.0,0.0,2.0,0.0,0.0,0.0,0.0
1582107269835,-0.96521765,-0.16282487,9.618227,-14.0,-8.6875,-42.4375,118.229996,0.82,-5.68,1295.0,1578.0,6156.0,5.0,52.0,0.0,0.0,3.1415926E-4,6.283185E-4,-0.97099996,-0.14119999,9.7574,0.0197,-0.0058,-0.1665,0.038828,0.031648,-0.856951,0.0,0.0,0.0,-36.5,36.625,-40.625,0.001785,0.050414998,-0.184597,0.0017104227,-0.0047472958,-0.0021642083,0.0,0.0,0.0,182935.0,0.0,0.0,0.038523,0.032832,-0.851265,0.0,0.0,0.0,0.0,2.0,0.0,0.0,0.0,0.0
1582107269885,-0.96421206,-0.15118906,9.61316,-14.3125,-8.8125,-42.3125,118.229996,0.83,-5.68,1295.0,1578.0,6156.0,5.0,52.0,0.0,-3.8397242E-4,-1.7453292E-5,-1.2217305E-4,-0.9709,-0.1414,9.7574,1.0E-4,0.0041,-0.1665,0.038823,0.031656,-0.856949,0.0,0.0,0.0,-36.8125,36.5,-40.5,0.001777,0.050416,-0.184585,0.0012915436,-0.005078908,-0.0029496064,0.0,0.0,0.0,182935.0,0.0,0.0,0.038522,0.032374,-0.852306,0.0,0.0,0.0,0.0,2.0,0.0,0.0,0.0,0.0
1582107269937,-0.9610517,-0.15456966,9.623848,-14.5625,-9.25,-42.375,118.229996,0.83,-5.68,1295.0,1578.0,6156.0,5.0,52.0,0.0,2.2689281E-4,-4.0142573E-4,1.7453292E-5,-0.97099996,-0.1416,9.7574,1.0E-4,0.0042999997,-0.1469,0.038818,0.031664,-0.856942,0.0,0.0,0.0,-37.0625,36.0625,-40.5625,0.001773,0.05042,-0.184589,0.0019373155,-0.0054803337,-0.0027925267,0.0,0.0,0.0,182935.0,0.0,0.0,0.038777,0.03254,-0.852209,0.0,0.0,0.0,0.0,2.0,0.0,0.0,0.0,0.0
1582107269987,-0.9603813,-0.15121777,9.60436,-14.4375,-9.1875,-42.4375,118.229996,0.83,-5.68,1295.0,1578.0,6156.0,5.0,52.0,0.0,-1.5707963E-4,-2.9670598E-4,3.3161257E-4,-0.9709,-0.1417,9.7574,0.0196,0.0044,-0.1567,0.038812,0.031667,-0.856946,0.0,0.0,0.0,-36.9375,36.125,-40.625,0.00176,0.050417,-0.184583,0.0015358897,-0.005375614,-0.0024609142,0.0,0.0,0.0,182935.0,0.0,0.0,0.038642,0.032261,-0.856001,0.0,0.0,0.0,0.0,2.0,0.0,0.0,0.0,0.0
1582107270039,-0.9680907,-0.1472817,9.622594,-14.25,-8.75,-42.125,118.229996,0.82,-5.68,1290.0,1573.0,6140.0,5.0,52.0,0.0,3.1415926E-4,-6.457718E-4,1.9198621E-4,-0.97069997,-0.14119999,9.7574,0.019399999,0.0039,-0.1567,0.038814,0.031639,-0.856947,0.0,0.0,0.0,-36.75,36.5625,-40.3125,0.001785,0.0504,-0.184584,0.002024582,-0.00572468,-0.0026005406,0.0,0.0,0.0,182935.0,0.0,0.0,0.038592,0.032001,-0.856031,0.0,0.0,0.0,0.0,2.0,0.0,0.0,0.0,0.0
1582107270089,-0.9642695,-0.1574427,9.619386,-14.8125,-8.4375,-42.3125,118.229996,0.83,-5.68,1290.0,1573.0,6140.0,5.0,52.0,0.0,1.7453292E-5,-0.0010821042,-0.001012291,-0.97059995,-0.1414,9.7574,0.019399999,-0.0056,-0.1273,0.038809,0.031645,-0.856947,0.0,0.0,0.0,-37.3125,36.875,-40.5,0.0017809999,0.050399,-0.184568,0.0017278759,-0.006161012,-0.003822271,0.0,0.0,0.0,182935.0,0.0,0.0,0.038268,0.032559,-0.848106,0.0,0.0,0.0,0.0,2.0,0.0,0.0,0.0,0.0
1582107270141,-0.97027415,-0.12978488,9.622507,-14.625,-8.75,-42.8125,118.229996,0.83,-5.67,1289.0,1571.0,6134.0,5.0,52.0,0.0,-0.002024582,2.443461E-4,-2.9670598E-4,-0.97029996,-0.1419,9.7574,0.0288,-0.0050999997,-0.1469,0.03878,0.031656,-0.856965,0.0,0.0,0.0,-37.125,36.5625,-41.0,0.001752,0.050382,-0.184562,-3.3161257E-4,-0.0048171086,-0.003106686,0.0,0.0,0.0,182935.0,0.0,0.0,0.037975,0.032693,-0.847407,0.0,0.0,0.0,0.0,2.0,0.0,0.0,0.0,0.0
1582107270190,-0.9650356,-0.1524915,9.634449,-14.875,-8.3125,-43.125,118.229996,0.83,-5.67,1289.0,1571.0,6134.0,5.0,52.0,0.0,-5.7595863E-4,-3.6651915E-4,1.3962634E-4,-0.9701,-0.1426,9.7575,0.009,0.0053,-0.1469,0.038755,0.031682,-0.856964,0.0,0.0,0.0,-37.375,37.0,-41.3125,0.001717,0.05038,-0.184558,0.0011170107,-0.005427974,-0.0026529005,0.0,0.0,0.0,182935.0,0.0,0.0,0.038027,0.032824,-0.846399,0.0,0.0,0.0,0.0,2.0,0.0,0.0,0.0,0.0
1582107270242,-0.9676406,-0.15425363,9.63851,-15.0,-8.5,-42.3125,118.229996,0.83,-5.67,1289.0,1571.0,6134.0,5.0,52.0,0.0,-1.5707963E-4,-8.5521134E-4,-9.773844E-4,-0.97029996,-0.1424,9.7574,0.0093,0.0149,-0.1273,0.038771,0.03168,-0.856957,0.0,0.0,0.0,-37.5,36.8125,-40.5,0.00173,0.050388,-0.18456,0.0015184365,-0.0059166662,-0.0037873646,0.0,0.0,0.0,182935.0,0.0,0.0,0.038218,0.032996,-0.844829,0.0,0.0,0.0,0.0,2.0,0.0,0.0,0.0,0.0
1582107270294,-0.9787018,-0.15213715,9.62789,-14.3125,-8.5,-41.9375,118.229996,0.83,-5.67,1288.0,1570.0,6125.0,5.0,52.0,0.0,-3.8397242E-4,-3.8397242E-4,-3.1415926E-4,-0.96999997,-0.1423,9.7575,0.0089,0.005,-0.1371,0.038757,0.031669,-0.856956,0.0,0.0,0.0,-36.8125,36.8125,-40.125,0.001726,0.050371,-0.184534,0.0013089969,-0.0054454273,-0.0031415927,0.0,0.0,0.0,182935.0,0.0,0.0,0.038084,0.032517,-0.847344,0.0,0.0,0.0,0.0,2.0,0.0,0.0,0.0,0.0
1582107270344,-0.961272,-0.14931199,9.6293545,-13.9375,-8.9375,-42.0,118.229996,0.83,-5.67,1288.0,1570.0,6125.0,5.0,52.0,0.0,-4.0142573E-4,6.283185E-4,-3.4906585E-5,-0.96989995,-0.1426,9.7575,-7.0E-4,0.0053,-0.1273,0.038751,0.031683,-0.856958,0.0,0.0,0.0,-36.4375,36.375,-40.1875,0.001704,0.050375,-0.184536,0.0012915436,-0.0044331364,-0.00286234,0.0,0.0,0.0,182935.0,0.0,0.0,0.03849,0.032764,-0.851576,0.0,0.0,0.0,0.0,2.0,0.0,0.0,0.0,0.0
1582107270395,-0.97082007,-0.14639106,9.638854,-14.125,-9.125,-42.0,118.229996,0.83,-5.67,1285.0,1567.0,6113.0,5.0,52.0,0.0,-6.1086525E-4,1.5707963E-4,8.726646E-5,-0.9701,-0.1428,9.7574,0.009099999,0.0055,-0.1175,0.038749,0.031693,-0.856964,0.0,0.0,0.0,-36.625,36.1875,-40.1875,0.001704,0.050377,-0.184534,0.0010821042,-0.004886922,-0.0027227136,0.0,0.0,0.0,182935.0,0.0,0.0,0.038649,0.032217998,-0.85624,0.0,0.0,0.0,0.0,2.0,0.0,0.0,0.0,0.0
1582107270447,-0.9887383,-0.17149188,9.629738,-14.3125,-8.4375,-42.3125,118.229996,0.84,-5.67,1285.0,1567.0,6113.0,5.0,52.0,0.0,-3.6651915E-4,-1.7453292E-4,8.726646E-4,-0.9701,-0.1431,9.7574,0.009099999,-0.0039,-0.1273,0.038743,0.031707,-0.856969,0.0,0.0,0.0,-36.75,36.625,-40.4375,0.001687,0.050378,-0.184512,0.0013264503,-0.005253441,-0.0019198621,0.0,0.0,0.0,182935.0,0.0,0.0,0.038459,0.032182,-0.854582,0.0,0.0,0.0,0.0,2.0,0.0,0.0,0.0,0.0
1582107270496,-0.96339804,-0.15418659,9.632016,-14.1875,-8.5,-42.4375,118.229996,0.84,-5.67,1283.0,1564.0,6104.0,5.0,52.0,0.0,2.7925268E-4,2.2689281E-4,7.330383E-4,-0.9701,-0.1432,9.7574,0.0188,0.0157,-0.1469,0.038739,0.031707,-0.856979,0.0,0.0,0.0,-36.6875,36.8125,-40.625,0.001691,0.050374,-0.184526,0.0019896755,-0.0048171086,-0.0020769418,0.0,0.0,0.0,182935.0,0.0,0.0,0.038195,0.032605,-0.848267,0.0,0.0,0.0,0.0,2.0,0.0,0.0,0.0,0.0
1582107270548,-0.96271807,-0.15569015,9.607615,-14.375,-8.875,-42.25,118.229996,0.84,-5.67,1283.0,1564.0,6104.0,5.0,52.0,0.0,-0.001012291,-1.2217305E-4,-6.6322513E-4,-0.96989995,-0.1432,9.7575,0.0089,0.0058999998,-0.1371,0.038732,0.031705,-0.856979,0.0,0.0,0.0,-36.875,36.4375,-40.4375,0.001687,0.050368,-0.184512,6.806784E-4,-0.0052010813,-0.0034732053,0.0,0.0,0.0,182935.0,0.0,0.0,0.038243,0.032572,-0.84988,0.0,0.0,0.0,0.0,2.0,0.0,0.0,0.0,0.0
1582107270601,-0.96156883,-0.14550042,9.638922,-14.25,-8.8125,-42.1875,118.24,0.84,-5.67,1283.0,1564.0,6104.0,5.0,52.0,0.0,2.6179937E-4,-8.726646E-5,2.0943952E-4,-0.9698,-0.1433,9.7575,0.0186,0.006,-0.147,0.038725,0.031704,-0.856986,0.0,0.0,0.0,-36.75,36.5,-40.375,0.001678,0.050359,-0.184505,0.001972222,-0.0051661744,-0.0025830872,0.0,0.0,0.0,182935.0,0.0,0.0,0.038388,0.032363,-0.851498,0.0,0.0,0.0,0.0,2.0,0.0,0.0,0.0,0.0
1582107270647,-0.95726883,-0.14831601,9.6264715,-14.6875,-8.6875,-42.125,118.229996,0.83,-5.67,1283.0,1565.0,6107.0,5.0,52.0,0.0,-6.981317E-5,8.726646E-5,-1.2217305E-4,-0.9698,-0.1427,9.7575,0.0088,0.015199999,-0.1372,0.038739,0.031681,-0.856972,0.0,0.0,0.0,-37.1875,36.625,-40.3125,0.001704,0.050352,-0.184481,0.0016057029,-0.0049741883,-0.0029496064,0.0,0.0,0.0,182935.0,0.0,0.0,0.038436,0.032269,-0.849513,0.0,0.0,0.0,0.0,2.0,0.0,0.0,0.0,0.0
1582107270702,-0.9739421,-0.14118129,9.61974,-14.75,-8.625,-42.25,118.229996,0.83,-5.67,1283.0,1565.0,6107.0,5.0,52.0,0.0,5.9341197E-4,-2.9670598E-4,-6.1086525E-4,-0.9701,-0.1426,9.7574,0.009099999,0.0150999995,-0.1469,0.038756,0.031685,-0.856958,0.0,0.0,0.0,-37.25,36.6875,-40.4375,0.001722,0.05037,-0.1845,0.0023038345,-0.005375614,-0.0034208454,0.0,0.0,0.0,182935.0,0.0,0.0,0.038614,0.032896,-0.845953,0.0,0.0,0.0,0.0,2.0,0.0,0.0,0.0,0.0
1582107270753,-0.9650548,-0.14706145,9.624528,-14.6875,-8.625,-42.625,118.229996,0.83,-5.67,1285.0,1567.0,6117.0,5.0,52.0,0.0,1.5707963E-4,-1.5707963E-4,-8.726646E-5,-0.9702,-0.1425,9.7574,0.0189,-0.0143,-0.1469,0.038759,0.031684,-0.856954,0.0,0.0,0.0,-37.1875,36.6875,-40.8125,0.001726,0.050374,-0.1845,0.0018675023,-0.0052359877,-0.0028972465,0.0,0.0,0.0,182935.0,0.0,0.0,0.038182,0.032916,-0.848615,0.0,0.0,0.0,0.0,2.0,0.0,0.0,0.0,0.0
1582107270803,-0.95700073,-0.15523046,9.617547,-15.0625,-8.375,-42.5625,118.229996,0.83,-5.67,1285.0,1567.0,6117.0,5.0,52.0,0.0,-5.061455E-4,-3.4906584E-4,3.6651915E-4,-0.9704,-0.14289999,9.7574,0.0094,0.0056,-0.1371,0.03876,0.03171,-0.856956,0.0,0.0,0.0,-37.5625,36.9375,-40.75,0.001708,0.050391,-0.184503,0.001134464,-0.004642576,-0.0024260078,0.0,0.0,0.0,182935.0,0.0,0.0,0.038002,0.03307,-0.845136,0.0,0.0,0.0,0.0,2.0,0.0,0.0,0.0,0.0
1582107270853,-0.9548747,-0.15679148,9.618888,-14.875,-8.625,-42.125,118.229996,0.83,-5.67,1285.0,1567.0,6117.0,5.0,52.0,0.0,-5.061455E-4,3.4906585E-5,3.1415926E-4,-0.9701,-0.14299999,9.7574,0.0188,0.0056999996,-0.1469,0.038743,0.0317,-0.856956,0.0,0.0,0.0,-37.375,36.6875,-40.3125,0.001695,0.050368,-0.184462,0.0011868239,-0.005026548,-0.0024783674,0.0,0.0,0.0,182935.0,0.0,0.0,0.037763,0.032774,-0.845455,0.0,0.0,0.0,0.0,2.0,0.0,0.0,0.0,0.0
1582107270905,-0.95269114,-0.1581897,9.61998,-14.5,-8.625,-42.0625,118.229996,0.84,-5.67,1290.0,1573.0,6144.0,5.0,52.0,0.0,6.806784E-4,4.712389E-4,-4.1887903E-4,-0.96989995,-0.1431,9.7575,0.0186,0.0156,-0.147,0.038732,0.031698,-0.856959,0.0,0.0,0.0,-37.0,36.6875,-40.25,0.001695,0.050352998,-0.184436,0.002391101,-0.0045727626,-0.003228859,0.0,0.0,0.0,182935.0,0.0,0.0,0.0381,0.032539,-0.848468,0.0,0.0,0.0,0.0,2.0,0.0,0.0,0.0,0.0
1582107270955,-0.9689717,-0.14971422,9.623628,-14.5625,-8.5,-41.875,118.229996,0.83,-5.67,1290.0,1573.0,6144.0,5.0,52.0,0.0,-2.9670598E-4,5.7595863E-4,-2.9670598E-4,-0.9695,-0.14299999,9.7575,0.0379,-0.0039999997,-0.147,0.038719,0.031686,-0.856966,0.0,0.0,0.0,-37.0625,36.8125,-40.0625,0.001687,0.050333,-0.184419,0.0013962634,-0.0044854963,-0.003106686,0.0,0.0,0.0,182935.0,0.0,0.0,0.037918,0.032556,-0.847244,0.0,0.0,0.0,0.0,2.0,0.0,0.0,0.0,0.0
1582107271006,-0.9631299,-0.14607503,9.615268,-14.9375,-9.0625,-42.125,118.229996,0.84,-5.67,1292.0,1576.0,6154.0,5.0,52.0,0.0,0.0,-4.1887903E-4,6.457718E-4,-0.9698,-0.1431,9.7575,0.0088,0.0156,-0.147,0.038729,0.031697,-0.856965,0.0,0.0,0.0,-37.4375,36.25,-40.3125,0.001687,0.05035,-0.184434,0.0016755161,-0.005497787,-0.0021467549,0.0,0.0,0.0,182935.0,0.0,0.0,0.038402,0.03295,-0.8485,0.0,0.0,0.0,0.0,2.0,0.0,0.0,0.0,0.0
1582107271058,-0.9587437,-0.1501739,9.623877,-14.8125,-9.125,-42.625,118.229996,0.84,-5.67,1292.0,1576.0,6154.0,5.0,52.0,0.0,0.0014835298,0.0019198621,0.001012291,-0.96959996,-0.1432,9.7575,0.018299999,-0.0037999998,-0.147,0.038716,0.031697,-0.856964,0.0,0.0,0.0,-37.3125,36.1875,-40.8125,0.001678,0.050336,-0.18441,0.0031939526,-0.0031415927,-0.0017802358,0.0,0.0,0.0,182935.0,0.0,0.0,0.038241,0.032412,-0.851466,0.0,0.0,0.0,0.0,2.0,0.0,0.0,0.0,0.0
1582107271108,-0.9611475,-0.14671667,9.628005,-14.4375,-9.125,-42.4375,118.229996,0.83,-5.67,1293.0,1577.0,6157.0,5.0,52.0,0.0,-1.3962634E-4,5.235988E-5,-8.726646E-5,-0.9698,-0.14299999,9.7575,0.0088,0.0155,-0.1568,0.038732998,0.031694,-0.856956,0.0,0.0,0.0,-37.125,36.3125,-40.8125,0.001695,0.050352,-0.184419,0.001553343,-0.0049916417,-0.0029146997,0.0,0.0,0.0,182935.0,0.0,0.0,0.038831,0.032604,-0.85291797,0.0,0.0,0.0,0.0,2.0,0.0,0.0,0.0,0.0
1582107271161,-0.97218,-0.14056838,9.617183,-14.8125,-8.9375,-42.25,118.229996,0.84,-5.67,1293.0,1577.0,6157.0,5.0,52.0,0.0,-2.0943952E-4,-2.0943952E-4,5.235988E-5,-0.96989995,-0.1432,9.7575,0.0186,-0.0037999998,-0.1568,0.03873,0.031703,-0.856966,0.0,0.0,0.0,-37.3125,36.375,-40.4375,0.001678,0.050354,-0.184413,0.0014835298,-0.0052883476,-0.0027576203,0.0,0.0,0.0,182935.0,0.0,0.0,0.038175,0.032428,-0.850892,0.0,0.0,0.0,0.0,2.0,0.0,0.0,0.0,0.0
1582107271211,-0.9607357,-0.14277104,9.620726,-14.6875,-8.875,-41.75,118.229996,0.83,-5.67,1295.0,1579.0,6167.0,5.0,52.0,0.0,-1.9198621E-4,2.2689281E-4,2.443461E-4,-0.9701,-0.14299999,9.7575,0.0286,0.0056999996,-0.1567,0.038742,0.0317,-0.856953,0.0,0.0,0.0,-37.1875,36.4375,-39.9375,0.0017,0.050364,-0.184406,0.0015009831,-0.0048171086,-0.0025481808,0.0,0.0,0.0,182935.0,0.0,0.0,0.038675,0.03229,-0.850785,0.0,0.0,0.0,0.0,2.0,0.0,0.0,0.0,0.0
1582107271260,-0.9735207,-0.16148412,9.6188965,-14.4375,-8.875,-41.9375,118.229996,0.84,-5.67,1295.0,1579.0,6167.0,5.0,52.0,0.0,-1.9198621E-4,-4.363323E-4,-4.5378561E-4,-0.97029996,-0.1432,9.7574,0.019,-0.0137,-0.1469,0.038748,0.031712,-0.856967,0.0,0.0,0.0,-36.9375,36.4375,-40.125,0.001691,0.050378,-0.184423,0.0015009831,-0.0055152406,-0.0032637657,0.0,0.0,0.0,182935.0,0.0,0.0,0.038402,0.032948,-0.851721,0.0,0.0,0.0,0.0,2.0,0.0,0.0,0.0,0.0
1582107271312,-0.9657348,-0.1583142,9.614894,-14.375,-8.375,-42.3125,118.229996,0.84,-5.68,1295.0,1579.0,6167.0,5.0,52.0,0.0,7.15585E-4,1.3962634E-4,6.806784E-4,-0.97059995,-0.1434,9.7574,0.019399999,-0.0036,-0.1567,0.038758,0.03173,-0.856969,0.0,0.0,0.0,-36.875,36.9375,-40.5,0.001678,0.050401,-0.184441,0.0024260078,-0.0049218284,-0.0021293017,0.0,0.0,0.0,182935.0,0.0,0.0,0.03831,0.033096,-0.847743,0.0,0.0,0.0,0.0,2.0,0.0,0.0,0.0,0.0
1582107271363,-0.96971875,-0.15448347,9.625303,-14.6875,-8.875,-42.375,118.229996,0.84,-5.67,1298.0,1582.0,6180.0,5.0,52.0,0.0,-0.0015882496,-2.2689281E-4,1.9198621E-4,-0.9704,-0.1435,9.7574,0.0191,-0.0034999999,-0.1567,0.038744,0.031731,-0.856979,0.0,0.0,0.0,-37.1875,36.4375,-40.5625,0.001673,0.050386,-0.184422,8.726646E-5,-0.005305801,-0.0026179939,0.0,0.0,0.0,182935.0,0.0,0.0,0.038066998,0.032639,-0.8495,0.0,0.0,0.0,0.0,2.0,0.0,0.0,0.0,0.0
1582107271417,-0.97050405,-0.14417884,9.6106415,-15.0625,-9.1875,-42.75,118.229996,0.84,-5.67,1298.0,1582.0,6180.0,5.0,52.0,0.0,-4.5378561E-4,-4.712389E-4,9.0757123E-4,-0.9705,-0.1437,9.7574,0.019199999,-0.0033,-0.1371,0.038744,0.031739,-0.856978,0.0,0.0,0.0,-37.5625,36.125,-40.9375,0.001664,0.050395,-0.184415,0.0012391837,-0.0055326936,-0.0018849556,0.0,0.0,0.0,182935.0,0.0,0.0,0.038568,0.0325,-0.85348,0.0,0.0,0.0,0.0,2.0,0.0,0.0,0.0,0.0
1582107271466,-0.968627,-0.14818193,9.619874,-15.0625,-9.0625,-42.625,118.229996,0.84,-5.67,1299.0,1584.0,6190.0,5.0,52.0,0.0,-1.7453292E-4,-1.3962634E-4,-8.901179E-4,-0.9705,-0.1437,9.7574,0.019199999,-0.0033,-0.1469,0.038742,0.031741,-0.856975,0.0,0.0,0.0,-37.5625,36.25,-40.8125,0.001655,0.050392,-0.184413,0.0015184365,-0.0052010813,-0.0037175512,0.0,0.0,0.0,182935.0,0.0,0.0,0.038361,0.032502,-0.850209,0.0,0.0,0.0,0.0,2.0,0.0,0.0,0.0,0.0
1582107271517,-0.9629575,-0.15692556,9.632678,-15.125,-8.8125,-42.25,118.24,0.84,-5.67,1299.0,1584.0,6190.0,5.0,52.0,0.0,4.712389E-4,-1.7453292E-4,-2.0943952E-4,-0.97029996,-0.1437,9.7574,0.0092,0.0064,-0.1567,0.038732998,0.031736,-0.856984,0.0,0.0,0.0,-37.625,36.5,-40.4375,0.001651,0.050375998,-0.18439999,0.0021816615,-0.0052359877,-0.0030194195,0.0,0.0,0.0,182935.0,0.0,0.0,0.038085,0.032587,-0.84798,0.0,0.0,0.0,0.0,2.0,0.0,0.0,0.0,0.0
1582107271566,-0.954166,-0.15128481,9.621703,-15.0,-8.8125,-42.25,118.24,0.84,-5.67,1299.0,1584.0,6190.0,5.0,52.0,0.0,-6.6322513E-4,1.5707963E-4,0.0013439035,-0.96999997,-0.14379999,9.7574,0.0187,0.0064999997,-0.1469,0.038719,0.03173,-0.856996,0.0,0.0,0.0,-37.5,36.5,-40.4375,0.001651,0.050361,-0.184391,0.0010297443,-0.004886922,-0.0014486233,0.0,0.0,0.0,182935.0,0.0,0.0,0.037892,0.032648,-0.8484,0.0,0.0,0.0,0.0,2.0,0.0,0.0,0.0,0.0
1582107271618,-0.9622201,-0.15501978,9.61475,-15.0,-8.6875,-42.6875,118.24,0.84,-5.67,1300.0,1586.0,6200.0,5.0,52.0,0.0,-5.9341197E-4,4.886922E-4,-6.806784E-4,-0.9697,-0.144,9.7575,0.028299998,-0.003,-0.1568,0.038704,0.031733,-0.857013,0.0,0.0,0.0,-37.5,36.625,-40.875,0.0016279999,0.050348,-0.184372,0.0010821042,-0.0045727626,-0.0034906585,0.0,0.0,0.0,182935.0,0.0,0.0,0.037778,0.032897,-0.848724,0.0,0.0,0.0,0.0,2.0,0.0,0.0,0.0,0.0
1582107271665,-0.9643078,-0.15406209,9.623455,-15.125,-8.125,-42.6875,118.24,0.84,-5.67,1300.0,1586.0,6200.0,5.0,52.0,0.0,2.7925268E-4,1.7453292E-5,0.0010646508,-0.9698,-0.1443,9.7575,0.0186,-0.0026999998,-0.1567,0.038702,0.031746,-0.857012,0.0,0.0,0.0,-37.625,37.1875,-40.875,0.001619,0.050357,-0.184378,0.0019896755,-0.005026548,-0.0017278759,0.0,0.0,0.0,182935.0,0.0,0.0,0.037869,0.033328,-0.842136,0.0,0.0,0.0,0.0,2.0,0.0,0.0,0.0,0.0
1582107271720,-0.95153236,-0.15159127,9.614894,-14.625,-8.0625,-42.5625,118.24,0.84,-5.67,1303.0,1588.0,6206.0,5.0,52.0,0.0,6.981317E-5,0.0011868239,-8.726646E-5,-0.96989995,-0.144,9.7574,0.0187,-0.003,-0.1469,0.038713,0.031737998,-0.857007,0.0,0.0,0.0,-37.125,37.25,-40.75,0.001633,0.050363,-0.184372,0.0017802358,-0.0038571777,-0.0029146997,0.0,0.0,0.0,182935.0,0.0,0.0,0.037762,0.033404,-0.840775,0.0,0.0,0.0,0.0,2.0,0.0,0.0,0.0,0.0
1582107271769,-0.96128154,-0.15332468,9.62041,-14.375,-8.25,-42.6875,118.24,0.84,-5.67,1303.0,1588.0,6206.0,5.0,52.0,0.0,-2.2689281E-4,0.0012217305,3.4906584E-4,-0.9701,-0.1443,9.7574,0.0188,0.0069999998,-0.1469,0.038713,0.031753,-0.857015,0.0,0.0,0.0,-36.875,37.0625,-40.875,0.001619,0.050373,-0.184386,0.0014660766,-0.0038397242,-0.002443461,0.0,0.0,0.0,182935.0,0.0,0.0,0.037833,0.033199,-0.844132,0.0,0.0,0.0,0.0,2.0,0.0,0.0,0.0,0.0
1582107271821,-0.98098105,-0.13931382,9.629173,-14.4375,-8.5,-42.625,118.24,0.84,-5.67,1303.0,1588.0,6208.0,5.0,52.0,0.0,2.9670598E-4,2.9670598E-4,1.7453292E-5,-0.96999997,-0.1443,9.7574,0.0285,-0.012499999,-0.1469,0.038707,0.031753,-0.857017,0.0,0.0,0.0,-36.9375,36.8125,-40.8125,0.001619,0.050368,-0.184375,0.0013788101,-0.0055676005,-0.0025830872,0.0,0.0,0.0,182935.0,0.0,0.0,0.038025,0.032829,-0.846508,0.0,0.0,0.0,0.0,2.0,0.0,0.0,0.0,0.0
1582107271870,-0.9721512,-0.14070244,9.636566,-14.5625,-8.8125,-42.4375,118.24,0.84,-5.67,1303.0,1588.0,6208.0,5.0,52.0,0.0,7.330383E-4,0.0014486233,4.0142573E-4,-0.97029996,-0.1444,9.7574,0.0092,0.0071,-0.1273,0.038717,0.031763,-0.857012,0.0,0.0,0.0,-37.0625,36.5,-40.625,0.0016279999,0.050382,-0.184385,0.002443461,-0.0036128315,-0.0024085543,0.0,0.0,0.0,182935.0,0.0,0.0,0.038464,0.03274,-0.848545,0.0,0.0,0.0,0.0,2.0,0.0,0.0,0.0,0.0
1582107271922,-0.96516013,-0.15480909,9.636479,-14.1875,-8.9375,-42.4375,118.24,0.84,-5.68,1303.0,1588.0,6208.0,5.0,52.0,0.0,2.443461E-4,8.726646E-5,8.0285146E-4,-0.9705,-0.1443,9.7574,0.0095,-0.0026999998,-0.1273,0.038732998,0.031765,-0.857011,0.0,0.0,0.0,-36.6875,36.375,-40.625,0.0016279999,0.050395,-0.184379,0.0019373155,-0.004956735,-0.0020071287,0.0,0.0,0.0,182935.0,0.0,0.0,0.038365,0.032437,-0.852789,0.0,0.0,0.0,0.0,2.0,0.0,0.0,0.0,0.0
1582107271973,-0.96799487,-0.15841953,9.626606,-14.5625,-8.625,-42.5625,118.24,0.84,-5.67,1303.0,1588.0,6211.0,5.0,52.0,0.0,3.8397242E-4,-2.6179937E-4,-9.5993106E-4,-0.97029996,-0.144,9.7574,0.0288,-0.003,-0.1371,0.038728,0.031748,-0.857007,0.0,0.0,0.0,-37.0625,36.6875,-40.75,0.001642,0.050389,-0.184371,0.002094395,-0.0053407075,-0.0037873646,0.0,0.0,0.0,182935.0,0.0,0.0,0.038368,0.032425,-0.849847,0.0,0.0,0.0,0.0,2.0,0.0,0.0,0.0,0.0
1582107272025,-0.9719501,-0.15745229,9.618992,-14.9375,-8.5625,-42.5625,118.24,0.84,-5.67,1303.0,1588.0,6211.0,5.0,52.0,0.0,-2.0943952E-4,1.2217305E-4,4.886922E-4,-0.96989995,-0.1442,9.7574,0.0187,-0.0028,-0.1273,0.038708,0.031746,-0.857015,0.0,0.0,0.0,-37.4375,36.75,-40.75,0.0016279999,0.050366,-0.184352,0.0014835298,-0.004939282,-0.0023038345,0.0,0.0,0.0,182935.0,0.0,0.0,0.037984,0.032785,-0.846575,0.0,0.0,0.0,0.0,2.0,0.0,0.0,0.0,0.0
1582107272074,-0.963331,-0.15216587,9.623905,-14.875,-8.8125,-42.375,118.24,0.84,-5.67,1304.0,1589.0,6213.0,5.0,52.0,0.0,6.1086525E-4,4.1887903E-4,-6.457718E-4,-0.96989995,-0.1437,9.7575,0.0088,0.0064,-0.1469,0.038718,0.031723,-0.85701,0.0,0.0,0.0,-37.375,36.5,-40.5625,0.001651,0.050354,-0.184352,0.002321288,-0.004642576,-0.0034557518,0.0,0.0,0.0,182935.0,0.0,0.0,0.038425,0.032848,-0.84742,0.0,0.0,0.0,0.0,2.0,0.0,0.0,0.0,0.0
1582107272126,-0.96130073,-0.17643352,9.622259,-14.875,-8.5,-42.5625,118.24,0.84,-5.67,1304.0,1589.0,6213.0,5.0,52.0,0.0,0.0,0.0010297443,3.8397242E-4,-0.9701,-0.1436,9.7574,0.009099999,-0.0132,-0.1469,0.038731,0.031726,-0.857007,0.0,0.0,0.0,-37.375,36.8125,-40.75,0.001655,0.050372,-0.184344,0.0017104227,-0.0040317103,-0.0024085543,0.0,0.0,0.0,182935.0,0.0,0.0,0.038013,0.033167,-0.848551,0.0,0.0,0.0,0.0,2.0,0.0,0.0,0.0,0.0
1582107272174,-0.9644706,-0.15430151,9.626232,-15.0625,-8.375,-42.625,118.24,0.84,-5.67,1301.0,1587.0,6208.0,5.0,52.0,0.0,2.2689281E-4,-2.443461E-4,-0.0012217305,-0.9701,-0.1437,9.7574,0.0189,0.0064,-0.1371,0.038729,0.031729,-0.857002,0.0,0.0,0.0,-37.5625,36.9375,-40.8125,0.001655,0.050372,-0.184336,0.0019373155,-0.005323254,-0.0040317103,0.0,0.0,0.0,182935.0,0.0,0.0,0.038055,0.032986,-0.845136,0.0,0.0,0.0,0.0,2.0,0.0,0.0,0.0,0.0
1582107272225,-0.96078354,-0.1562456,9.613294,-15.0625,-8.3125,-42.25,118.24,0.84,-5.67,1301.0,1587.0,6208.0,5.0,52.0,0.0,5.5850536E-4,1.5707963E-4,3.6651915E-4,-0.97029996,-0.1436,9.7574,0.019,0.0063,-0.1665,0.03874,0.031728,-0.856999,0.0,0.0,0.0,-37.5625,37.0,-40.4375,0.001664,0.05038,-0.184335,0.002268928,-0.0049043754,-0.0024260078,0.0,0.0,0.0,182935.0,0.0,0.0,0.038017,0.033253,-0.842573,0.0,0.0,0.0,0.0,2.0,0.0,0.0,0.0,0.0
1582107272277,-0.965955,-0.15288414,9.623609,-15.1875,-8.375,-42.125,118.24,0.84,-5.67,1301.0,1587.0,6208.0,5.0,52.0,0.0,1.7453292E-4,6.981317E-5,0.0,-0.97029996,-0.144,9.7574,0.0191,0.0067,-0.1469,0.03873,0.031748,-0.85702,0.0,0.0,0.0,-37.6875,36.9375,-40.3125,0.001642,0.050386,-0.184336,0.0018849556,-0.0049916417,-0.0028099802,0.0,0.0,0.0,182935.0,0.0,0.0,0.037582,0.033484,-0.842174,0.0,0.0,0.0,0.0,2.0,0.0,0.0,0.0,0.0
1582107272328,-0.97109777,-0.15217546,9.625726,-14.75,-8.75,-42.1875,118.25,0.84,-5.67,1300.0,1586.0,6198.0,5.0,52.0,0.0,1.5707963E-4,0.0011693706,3.8397242E-4,-0.96989995,-0.14389999,9.7575,0.0186,-0.0030999999,-0.1371,0.038713,0.031732,-0.857027,0.0,0.0,0.0,-37.25,36.5625,-40.375,0.001642,0.05036,-0.184323,0.0018675023,-0.0038920841,-0.0024260078,0.0,0.0,0.0,182935.0,0.0,0.0,0.037914,0.032836,-0.845687,0.0,0.0,0.0,0.0,2.0,0.0,0.0,0.0,0.0
1582107272380,-0.98206323,-0.16186719,9.62653,-14.5,-8.9375,-42.25,118.25,0.84,-5.67,1300.0,1586.0,6198.0,5.0,52.0,0.0,-4.886922E-4,-5.2359875E-4,-1.2217305E-4,-0.96989995,-0.1442,9.7574,0.0285,0.0069999998,-0.1567,0.038706,0.031746,-0.857025,0.0,0.0,0.0,-37.0,36.375,-40.4375,0.0016279999,0.050365,-0.184335,0.0011868239,-0.005602507,-0.0029321532,0.0,0.0,0.0,182935.0,0.0,0.0,0.038681,0.032615,-0.852,0.0,0.0,0.0,0.0,2.0,0.0,0.0,0.0,0.0
1582107272429,-0.971251,-0.15243404,9.623082,-14.5625,-8.5,-42.3125,118.24,0.84,-5.67,1299.0,1584.0,6198.0,5.0,52.0,0.0,-1.5707963E-4,7.5049157E-4,5.2359875E-4,-0.97029996,-0.1442,9.7574,-4.0E-4,-0.0028,-0.1469,0.038727,0.031757,-0.857012,0.0,0.0,0.0,-37.0625,36.8125,-40.5,0.001637,0.050394,-0.184366,0.0015358897,-0.004310963,-0.002268928,0.0,0.0,0.0,182935.0,0.0,0.0,0.038948,0.03287,-0.851134,0.0,0.0,0.0,0.0,2.0,0.0,0.0,0.0,0.0
1582107272482,-0.96282345,-0.14362337,9.608621,-14.5625,-8.4375,-42.375,118.24,0.84,-5.68,1299.0,1584.0,6198.0,5.0,52.0,0.0,6.981317E-4,-0.0010821042,-0.0013439035,-0.97059995,-0.1442,9.7574,0.019399999,0.0069,-0.1665,0.038737,0.031764,-0.857004,0.0,0.0,0.0,-37.0625,36.875,-40.5625,0.001642,0.050408,-0.184361,0.0024085543,-0.006143559,-0.0041538836,0.0,0.0,0.0,182935.0,0.0,0.0,0.03825,0.032829,-0.846691,0.0,0.0,0.0,0.0,2.0,0.0,0.0,0.0,0.0
1582107272532,-0.97021675,-0.16029659,9.617097,-14.375,-8.75,-42.375,118.24,0.84,-5.67,1299.0,1584.0,6197.0,5.0,52.0,0.0,1.9198621E-4,8.726646E-4,-3.8397242E-4,-0.9704,-0.14389999,9.7574,0.019199999,0.0066,-0.1469,0.038738,0.031745,-0.857006,0.0,0.0,0.0,-36.875,36.5625,-40.5625,0.00166,0.050394,-0.184363,0.0019024089,-0.00418879,-0.0032114058,0.0,0.0,0.0,182935.0,0.0,0.0,0.038473,0.032514,-0.849695,0.0,0.0,0.0,0.0,2.0,0.0,0.0,0.0,0.0
1582107272584,-0.96152097,-0.1551347,9.614607,-15.0,-8.625,-42.0625,118.24,0.84,-5.67,1299.0,1584.0,6197.0,5.0,52.0,0.0,1.7453292E-4,-5.7595863E-4,-4.5378561E-4,-0.97029996,-0.1441,9.7574,0.0191,-0.0029,-0.1469,0.038727,0.031752,-0.857015,0.0,0.0,0.0,-37.5,36.6875,-40.25,0.001646,0.05039,-0.184361,0.0018849556,-0.0056374134,-0.003281219,0.0,0.0,0.0,182935.0,0.0,0.0,0.038085,0.032949,-0.848888,0.0,0.0,0.0,0.0,2.0,0.0,0.0,0.0,0.0
1582107272633,-0.95302635,-0.14970465,9.608496,-14.6875,-8.6875,-42.375,118.24,0.84,-5.67,1299.0,1584.0,6197.0,5.0,52.0,0.0,2.0943952E-4,6.6322513E-4,8.0285146E-4,-0.9704,-0.1444,9.7574,0.0191,-0.0026,-0.1665,0.038723,0.031765,-0.857018,0.0,0.0,0.0,-37.1875,36.625,-40.5625,0.001637,0.050398,-0.184364,0.0019198621,-0.0043982295,-0.0019896755,0.0,0.0,0.0,182935.0,0.0,0.0,0.038134,0.032914,-0.848479,0.0,0.0,0.0,0.0,2.0,0.0,0.0,0.0,0.0
1582107272687,-0.96090806,-0.16404112,9.625888,-15.0,-9.0,-42.4375,118.24,0.84,-5.67,1299.0,1584.0,6194.0,5.0,52.0,0.0,-0.0010821042,1.5707963E-4,4.363323E-4,-0.9701,-0.14469999,9.7574,0.0287,-0.0023,-0.1665,0.038705,0.03177,-0.857022,0.0,0.0,0.0,-37.5,36.3125,-40.625,0.001614,0.05038,-0.184351,6.1086525E-4,-0.0049043754,-0.0023561944,0.0,0.0,0.0,182935.0,0.0,0.0,0.038236,0.032433,-0.851264,0.0,0.0,0.0,0.0,2.0,0.0,0.0,0.0,0.0
1582107272736,-0.96838754,-0.15588169,9.60523,-15.0,-9.0,-42.75,118.24,0.84999996,-5.67,1299.0,1584.0,6194.0,5.0,52.0,0.0,3.4906585E-5,1.3962634E-4,-9.773844E-4,-0.9702,-0.14479999,9.7574,0.009099999,0.0075,-0.1469,0.038705,0.031776,-0.857022,0.0,0.0,0.0,-37.5,36.3125,-40.9375,0.001605,0.050385,-0.184343,0.0017453292,-0.0049218284,-0.0038048178,0.0,0.0,0.0,182935.0,0.0,0.0,0.038215,0.032781,-0.849053,0.0,0.0,0.0,0.0,2.0,0.0,0.0,0.0,0.0
1582107272788,-0.95971096,-0.1539376,9.612988,-14.5625,-8.75,-42.625,118.25,0.84999996,-5.67,1298.0,1582.0,6189.0,5.0,52.0,0.0,2.7925268E-4,-8.726646E-5,1.2217305E-4,-0.96999997,-0.1451,9.7574,0.009,-0.0018999999,-0.1567,0.03869,0.031787,-0.85703,0.0,0.0,0.0,-37.125,36.5,-40.875,0.0015819999,0.050385,-0.184347,0.0019896755,-0.0051661744,-0.002687807,0.0,0.0,0.0,182935.0,0.0,0.0,0.038267,0.032978,-0.84973097,0.0,0.0,0.0,0.0,2.0,0.0,0.0,0.0,0.0
1582107272837,-0.9680619,-0.15524963,9.609023,-14.625,-8.5,-42.75,118.25,0.84999996,-5.67,1298.0,1582.0,6189.0,5.0,52.0,0.0,7.853982E-4,-8.2030473E-4,-8.726646E-5,-0.9702,-0.1451,9.7574,0.0092,-0.0018999999,-0.1665,0.0387,0.03179,-0.857028,0.0,0.0,0.0,-37.125,36.8125,-40.9375,0.001586,0.050397,-0.18436,0.0024958209,-0.005899213,-0.0028972465,0.0,0.0,0.0,182935.0,0.0,0.0,0.038138,0.033035,-0.846344,0.0,0.0,0.0,0.0,2.0,0.0,0.0,0.0,0.0
1582107272889,-0.96890473,-0.14476302,9.620486,-14.3125,-8.375,-42.75,118.25,0.84999996,-5.68,1298.0,1582.0,6189.0,5.0,52.0,0.0,-4.5378561E-4,2.6179937E-4,-2.6179937E-4,-0.97059995,-0.1453,9.7574,0.029099999,-0.0016999999,-0.1567,0.038709,0.031808,-0.857039,0.0,0.0,0.0,-36.8125,36.9375,-40.9375,0.0015819999,0.050419,-0.184389,0.0012391837,-0.0047996556,-0.0030717794,0.0,0.0,0.0,182935.0,0.0,0.0,0.038188,0.033477,-0.845778,0.0,0.0,0.0,0.0,2.0,0.0,0.0,0.0,0.0
1582107272941,-0.9710116,-0.14664006,9.620439,-14.5,-8.5,-42.125,118.25,0.84999996,-5.68,1298.0,1582.0,6188.0,5.0,52.0,0.0,5.410521E-4,1.0471976E-4,2.443461E-4,-0.97059995,-0.1453,9.7574,0.029099999,-0.0115,-0.1469,0.038709998,0.031807,-0.857042,0.0,0.0,0.0,-37.0,36.8125,-40.3125,0.001577,0.050418,-0.184386,0.0022514747,-0.004956735,-0.0025481808,0.0,0.0,0.0,182935.0,0.0,0.0,0.038052,0.032979,-0.847396,0.0,0.0,0.0,0.0,2.0,0.0,0.0,0.0,0.0
1582107272991,-0.9562537,-0.14768395,9.620984,-14.4375,-8.3125,-42.4375,118.25,0.84999996,-5.67,1298.0,1582.0,6188.0,5.0,52.0,0.0,1.9198621E-4,6.981317E-5,0.0,-0.9705,-0.1451,9.7574,0.029,-0.0018999999,-0.1469,0.038711,0.031795,-0.857042,0.0,0.0,0.0,-36.9375,37.0,-40.625,0.001586,0.050409,-0.184366,0.0019024089,-0.0049741883,-0.0027925267,0.0,0.0,0.0,182935.0,0.0,0.0,0.037814,0.032775998,-0.845794,0.0,0.0,0.0,0.0,2.0,0.0,0.0,0.0,0.0
1582107273043,-0.9730323,-0.14593138,9.607318,-14.3125,-8.25,-42.75,118.25,0.84999996,-5.67,1296.0,1580.0,6181.0,5.0,52.0,0.0,-5.061455E-4,-3.3161257E-4,5.9341197E-4,-0.97029996,-0.145,9.7574,0.0092,0.0175,-0.1469,0.038706,0.031788,-0.857035,0.0,0.0,0.0,-36.8125,37.0625,-40.9375,0.001596,0.050392,-0.184335,0.0011868239,-0.005410521,-0.0022165682,0.0,0.0,0.0,182935.0,0.0,0.0,0.038177,0.032705,-0.845276,0.0,0.0,0.0,0.0,2.0,0.0,0.0,0.0,0.0
1582107273093,-0.95294017,-0.152616,9.617374,-14.5625,-8.3125,-42.4375,118.25,0.84999996,-5.67,1296.0,1580.0,6181.0,5.0,52.0,0.0,-5.061455E-4,-6.981317E-5,-0.0011519173,-0.9705,-0.1449,9.7574,0.0094,0.0075999997,-0.1567,0.038711,0.031792,-0.85703,0.0,0.0,0.0,-37.0625,37.0,-40.625,0.001614,0.050408,-0.184347,0.0011868239,-0.0051487214,-0.0039618975,0.0,0.0,0.0,182935.0,0.0,0.0,0.038172,0.033137,-0.844569,0.0,0.0,0.0,0.0,2.0,0.0,0.0,0.0,0.0
1582107273144,-0.96557194,-0.15648502,9.614032,-14.75,-8.25,-42.25,118.25,0.84999996,-5.68,1296.0,1580.0,6184.0,5.0,52.0,0.0,-1.0471976E-4,8.726646E-5,-0.0012042772,-0.9705,-0.1451,9.7574,0.019299999,0.0077,-0.1567,0.038715,0.031797,-0.857027,0.0,0.0,0.0,-37.25,37.0625,-40.4375,0.00161,0.050412,-0.184358,0.0015707964,-0.0049741883,-0.0040142573,0.0,0.0,0.0,182935.0,0.0,0.0,0.038127,0.033151,-0.843117,0.0,0.0,0.0,0.0,2.0,0.0,0.0,0.0,0.0
1582107273194,-0.97339624,-0.16614802,9.608659,-14.875,-8.4375,-42.4375,118.25,0.84999996,-5.68,1296.0,1580.0,6184.0,5.0,52.0,0.0,1.9198621E-4,0.0,5.5850536E-4,-0.97059995,-0.145,9.7574,0.0095999995,-0.0019999999,-0.1468,0.03872,0.031797,-0.85704,0.0,0.0,0.0,-37.375,36.875,-40.625,0.00161,0.05041,-0.184384,0.0019024089,-0.0050614546,-0.0022340214,0.0,0.0,0.0,182935.0,0.0,0.0,0.037912,0.033249,-0.843075,0.0,0.0,0.0,0.0,2.0,0.0,0.0,0.0,0.0
1582107273246,-0.9561963,-0.15605406,9.613285,-14.875,-8.625,-42.375,118.25,0.84999996,-5.68,1296.0,1580.0,6184.0,5.0,52.0,0.0,-8.3775807E-4,-3.1415926E-4,1.9198621E-4,-0.97059995,-0.1453,9.7574,0.019299999,-0.0016999999,-0.17629999,0.038709998,0.031808,-0.857048,0.0,0.0,0.0,-37.375,36.6875,-40.5625,0.001591,0.050418,-0.184398,8.5521134E-4,-0.0053930674,-0.0026005406,0.0,0.0,0.0,182935.0,0.0,0.0,0.038009,0.03308,-0.845264,0.0,0.0,0.0,0.0,2.0,0.0,0.0,0.0,0.0
1582107273295,-0.9609751,-0.15303737,9.614664,-14.625,-8.5,-42.5,118.25,0.84999996,-5.67,1295.0,1578.0,6176.0,5.0,52.0,0.0,-0.0055850535,0.0012042772,0.0016406095,-0.9705,-0.1453,9.7574,0.019199999,0.007999999,-0.1665,0.038707,0.031803,-0.857048,0.0,0.0,0.0,-37.125,36.8125,-40.6875,0.001596,0.050406,-0.184386,-0.003874631,-0.0038571777,-0.0011693706,0.0,0.0,0.0,182935.0,0.0,0.0,0.037984,0.032609,-0.846236,0.0,0.0,0.0,0.0,2.0,0.0,0.0,0.0,0.0
1582107273347,-0.9631586,-0.13978307,9.609072,-14.5625,-8.25,-41.9375,118.259995,0.84999996,-5.67,1295.0,1578.0,6176.0,5.0,52.0,0.0,1.7453292E-4,-6.981317E-5,-5.9341197E-4,-0.9702,-0.1454,9.7574,0.019,-0.0016,-0.1567,0.038691,0.031803,-0.857068,0.0,0.0,0.0,-37.0625,37.0625,-40.125,0.001586,0.050393,-0.184376,0.0018849556,-0.0051487214,-0.003403392,0.0,0.0,0.0,182935.0,0.0,0.0,0.037714,0.032906,-0.846141,0.0,0.0,0.0,0.0,2.0,0.0,0.0,0.0,0.0
1582107273400,-0.9734537,-0.16324624,9.629852,-14.0,-8.375,-42.125,118.259995,0.84999996,-5.67,1295.0,1579.0,6180.0,5.0,52.0,0.0,-1.7453292E-4,-8.5521134E-4,7.5049157E-4,-0.97029996,-0.1453,9.7574,0.0093,0.007999999,-0.1469,0.0387,0.031801,-0.85708,0.0,0.0,0.0,-36.5,36.9375,-40.3125,0.001591,0.050396,-0.184405,0.0015184365,-0.005934119,-0.0020594886,0.0,0.0,0.0,182935.0,0.0,0.0,0.038115,0.03297,-0.846706,0.0,0.0,0.0,0.0,2.0,0.0,0.0,0.0,0.0
1582107273451,-0.9572593,-0.149063,9.611839,-14.1875,-9.0625,-41.875,118.259995,0.84999996,-5.67,1295.0,1579.0,6180.0,5.0,52.0,0.0,1.2217305E-4,-2.443461E-4,-0.0010646508,-0.97029996,-0.1454,9.7574,0.0288,-0.0016,-0.1469,0.038697,0.031801,-0.857081,0.0,0.0,0.0,-36.6875,36.25,-40.0625,0.0015819999,0.050395,-0.18440899,0.0018325957,-0.005323254,-0.0038920841,0.0,0.0,0.0,182935.0,0.0,0.0,0.038479,0.032219,-0.854417,0.0,0.0,0.0,0.0,2.0,0.0,0.0,0.0,0.0
1582107273501,-0.97099245,-0.13450626,9.631414,-14.8125,-8.625,-42.0,118.259995,0.84999996,-5.67,1297.0,1581.0,6191.0,5.0,52.0,0.0,-5.5850536E-4,3.8397242E-4,-4.712389E-4,-0.97029996,-0.1454,9.7574,0.0191,-0.0016,-0.1371,0.038699,0.031799998,-0.857095,0.0,0.0,0.0,-37.3125,36.6875,-40.1875,0.001591,0.050395,-0.184412,8.901179E-4,-0.004660029,-0.0039618975,0.0,0.0,0.0,182935.0,0.0,0.0,0.03845,0.032472,-0.850893,0.0,0.0,0.0,0.0,2.0,0.0,0.0,0.0,0.0
1582107273551,-0.96177953,-0.14544296,9.634144,-14.9375,-8.3125,-41.8125,118.259995,0.84999996,-5.67,1297.0,1581.0,6191.0,5.0,52.0,0.0,3.3161257E-4,4.712389E-4,0.0012217305,-0.9704,-0.1454,9.7574,0.019199999,-0.0016,-0.1469,0.038705,0.031801,-0.857109,0.0,0.0,0.0,-37.4375,37.0,-40.0,0.001596,0.0504,-0.184424,0.0014835298,-0.004886922,-0.0020071287,0.0,0.0,0.0,182935.0,0.0,0.0,0.037708,0.032971,-0.84541297,0.0,0.0,0.0,0.0,2.0,0.0,0.0,0.0,0.0
1582107273604,-0.9629096,-0.1498866,9.625284,-15.0625,-8.4375,-42.125,118.27,0.84999996,-5.68,1297.0,1581.0,6191.0,5.0,52.0,0.0,2.7925268E-4,1.7453292E-4,5.235988E-5,-0.97069997,-0.1454,9.7574,0.019399999,0.0081,-0.1468,0.038714,0.031811,-0.857115,0.0,0.0,0.0,-37.5625,36.875,-40.3125,0.001596,0.050414998,-0.184436,0.0019896755,-0.004886922,-0.0027576203,0.0,0.0,0.0,182935.0,0.0,0.0,0.038001,0.033079,-0.84401697,0.0,0.0,0.0,0.0,2.0,0.0,0.0,0.0,0.0
1582107273653,-0.9619424,-0.14617081,9.63829,-14.625,-8.6875,-42.5625,118.27,0.84999996,-5.68,1298.0,1583.0,6196.0,5.0,52.0,0.0,-1.7453292E-4,-1.7453292E-5,-4.363323E-4,-0.9708,-0.1451,9.757299,0.0195,0.0177,-0.12719999,0.038728,0.031799998,-0.857127,0.0,0.0,0.0,-37.125,36.625,-40.75,0.001596,0.050418,-0.184437,0.0015184365,-0.0050963615,-0.0032463125,0.0,0.0,0.0,182935.0,0.0,0.0,0.037996,0.032787,-0.846646,0.0,0.0,0.0,0.0,2.0,0.0,0.0,0.0,0.0
1582107273707,-0.9604771,-0.1532768,9.6106615,-14.1875,-8.5625,-42.5625,118.27,0.84999996,-5.68,1298.0,1583.0,6196.0,5.0,52.0,0.0,0.0,-5.2359875E-4,-6.457718E-4,-0.9708,-0.1453,9.757299,0.0196,0.007999999,-0.1468,0.038727,0.031807,-0.857144,0.0,0.0,0.0,-36.6875,36.75,-40.75,0.001596,0.05042,-0.184454,0.0017104227,-0.0055850535,-0.0034732053,0.0,0.0,0.0,182935.0,0.0,0.0,0.038213,0.0327,-0.850713,0.0,0.0,0.0,0.0,2.0,0.0,0.0,0.0,0.0
1582107273756,-0.94702166,-0.15832378,9.625802,-14.125,-8.75,-42.5,118.28,0.84999996,-5.68,1303.0,1588.0,6220.0,5.0,52.0,0.0,-3.6651915E-4,-4.5378561E-4,0.0,-0.9708,-0.1452,9.757299,0.0196,-0.0018,-0.1566,0.038731,0.031803,-0.857159,0.0,0.0,0.0,-36.625,36.5625,-40.6875,0.0016,0.050418,-0.184465,0.0013089969,-0.0055326936,-0.0028274334,0.0,0.0,0.0,182935.0,0.0,0.0,0.038257,0.032536,-0.85144,0.0,0.0,0.0,0.0,2.0,0.0,0.0,0.0,0.0
1582107273808,-0.95000005,-0.14494498,9.611504,-14.8125,-8.4375,-42.75,118.28,0.84999996,-5.68,1303.0,1588.0,6220.0,5.0,52.0,0.0,5.9341197E-4,4.0142573E-4,8.901179E-4,-0.9709,-0.1453,9.757299,0.0099,-0.0016999999,-0.1566,0.038732998,0.031808,-0.857172,0.0,0.0,0.0,-37.3125,36.875,-40.9375,0.0016,0.050426,-0.184485,0.0023038345,-0.004660029,-0.0019024089,0.0,0.0,0.0,182935.0,0.0,0.0,0.038092,0.032909,-0.847197,0.0,0.0,0.0,0.0,2.0,0.0,0.0,0.0,0.0
1582107273857,-0.9717586,-0.15840039,9.618418,-14.6875,-8.625,-42.1875,118.28,0.84999996,-5.68,1306.0,1593.0,6237.0,5.0,52.0,0.0,-9.5993106E-4,-1.0471976E-4,-3.3161257E-4,-0.9708,-0.1454,9.757299,0.029399998,-0.0016,-0.1566,0.038727,0.031808,-0.857189,0.0,0.0,0.0,-37.3125,36.8125,-40.625,0.001591,0.050417,-0.184473,7.330383E-4,-0.005183628,-0.003159046,0.0,0.0,0.0,182935.0,0.0,0.0,0.03771,0.032873,-0.845336,0.0,0.0,0.0,0.0,2.0,0.0,0.0,0.0,0.0
1582107273909,-0.96318734,-0.15425363,9.62064,-14.3125,-8.375,-42.125,118.29,0.84999996,-5.68,1306.0,1593.0,6237.0,5.0,52.0,0.0,9.250245E-4,-5.410521E-4,1.9198621E-4,-0.9709,-0.14549999,9.757299,0.0196,-0.0015,-0.137,0.038728,0.031813,-0.857207,0.0,0.0,0.0,-36.8125,36.9375,-40.3125,0.001586,0.050419,-0.184488,0.002635447,-0.005602507,-0.0026005406,0.0,0.0,0.0,182935.0,0.0,0.0,0.038096,0.032763,-0.849571,0.0,0.0,0.0,0.0,2.0,0.0,0.0,0.0,0.0
1582107273960,-0.97007304,-0.15980819,9.616617,-14.375,-8.625,-42.0625,118.29,0.84999996,-5.68,1306.0,1593.0,6237.0,5.0,52.0,0.0,4.363323E-4,3.3161257E-4,-6.981317E-5,-0.97099996,-0.1458,9.757299,0.0198,-0.0011999999,-0.1468,0.038726,0.03183,-0.857222,0.0,0.0,0.0,-36.875,36.6875,-40.25,0.001572,0.050431,-0.184511,0.0013089969,-0.004886922,-0.0024609142,0.0,0.0,0.0,182935.0,0.0,0.0,0.038158,0.032959,-0.848113,0.0,0.0,0.0,0.0,2.0,0.0,0.0,0.0,0.0
1582107274012,-0.9642504,-0.15420575,9.6019745,-14.3125,-9.0,-42.25,118.29,0.84999996,-5.68,1308.0,1595.0,6242.0,5.0,52.0,0.0,2.7925268E-4,-4.363323E-4,-1.3962634E-4,-0.9712,-0.146,9.757299,0.010199999,-9.999999E-4,-0.1566,0.038731,0.03184,-0.857229,0.0,0.0,0.0,-36.8125,36.3125,-40.4375,0.001568,0.050447,-0.18454,0.0013264503,-0.006161012,-0.0032637657,0.0,0.0,0.0,182935.0,0.0,0.0,0.038661,0.032708,-0.852143,0.0,0.0,0.0,0.0,2.0,0.0,0.0,0.0,0.0
1582107274064,-0.95996,-0.14441824,9.607731,-14.0625,-8.625,-42.4375,118.29,0.84999996,-5.68,1308.0,1595.0,6242.0,5.0,52.0,0.0,4.1887903E-4,0.0013089969,-1.7453292E-5,-0.97139996,-0.1457,9.757299,0.0103,0.018199999,-0.1566,0.038745,0.031833,-0.857233,0.0,0.0,0.0,-36.5625,36.6875,-40.625,0.0015819999,0.050449,-0.184566,0.0021293017,-0.003752458,-0.0028448866,0.0,0.0,0.0,182935.0,0.0,0.0,0.03875,0.032335,-0.852796,0.0,0.0,0.0,0.0,2.0,0.0,0.0,0.0,0.0
1582107274118,-0.98077995,-0.15468459,9.609321,-14.3125,-8.5625,-42.375,118.29,0.84999996,-5.68,1301.0,1587.0,6218.0,5.0,52.0,0.0,-1.7453292E-5,-0.001012291,-5.410521E-4,-0.9715,-0.14559999,9.757299,0.0202,0.0083,-0.1369,0.038754,0.03183,-0.85723,0.0,0.0,0.0,-36.8125,36.75,-40.5625,0.001605,0.050458,-0.184565,0.0023736479,-0.0054803337,-0.003106686,0.0,0.0,0.0,182935.0,0.0,0.0,0.038497,0.0325,-0.849964,0.0,0.0,0.0,0.0,2.0,0.0,0.0,0.0,0.0
1582107274169,-0.976614,-0.15611152,9.616062,-14.375,-8.875,-41.8125,118.29,0.84999996,-5.68,1301.0,1587.0,6218.0,5.0,52.0,0.0,-7.15585E-4,-3.1415926E-4,-4.712389E-4,-0.9716,-0.1453,9.757299,0.030199999,0.0178,-0.1467,0.038768,0.031821,-0.857229,0.0,0.0,0.0,-36.875,36.4375,-40.0,0.001624,0.050458,-0.18458,0.0072431164,-0.0045029493,-0.0033684855,0.0,0.0,0.0,182935.0,0.0,0.0,0.038367,0.032345,-0.84961,0.0,0.0,0.0,0.0,2.0,0.0,0.0,0.0,0.0
